"id","participant_id","timesent_utc","name","gender","handedness","time_gameplayed_utc","details","Late Response","Response Window","Trial Accuracy","Response Time","Cue Angle"
"5387f1cdb6145eb6457b23c7","ADMIN-UCSF-7543","2014-05-29T19:49:48-0700","Joaq email","MALE","RIGHT","2014-05-29T19:31:39-0700","Cue Angle",,"0","1000","0","840.7729864120483","90"
"5387f1cdb6145eb6457b23c7","ADMIN-UCSF-7543","2014-05-29T19:49:48-0700","Joaq email","MALE","RIGHT","2014-05-29T19:31:39-0700","Cue Angle",,"0","1400","0","348.46699237823486","DIFFERENT IMAGE"
"5387f1cdb6145eb6457b23c7","ADMIN-UCSF-7543","2014-05-29T19:49:48-0700","Joaq email","MALE","RIGHT","2014-05-29T19:31:39-0700","Cue Angle",,"0","1800","1","793.4979796409607","90"
"5387f1cdb6145eb6457b23c7","ADMIN-UCSF-7543","2014-05-29T19:49:48-0700","Joaq email","MALE","RIGHT","2014-05-29T19:31:39-0700","Cue Angle",,"1","1700","0","N/A","92"
"5388aec6b6145eed507b23cb","ADMIN-UCSF-7543","2014-05-30T09:16:05-0700","Joaq email","MALE","RIGHT","2014-05-29T19:31:39-0700","Cue Angle",,"0","1000","0","840.7729864120483","90"
"5388aec6b6145eed507b23cb","ADMIN-UCSF-7543","2014-05-30T09:16:05-0700","Joaq email","MALE","RIGHT","2014-05-29T19:31:39-0700","Cue Angle",,"0","1400","0","348.46699237823486","DIFFERENT IMAGE"
"5388aec6b6145eed507b23cb","ADMIN-UCSF-7543","2014-05-30T09:16:05-0700","Joaq email","MALE","RIGHT","2014-05-29T19:31:39-0700","Cue Angle",,"0","1800","1","793.4979796409607","90"
"5388aec6b6145eed507b23cb","ADMIN-UCSF-7543","2014-05-30T09:16:05-0700","Joaq email","MALE","RIGHT","2014-05-29T19:31:39-0700","Cue Angle",,"1","1700","0","N/A","92"
"53e18334b6145ef8400923a0","BLUE-00051","2014-08-05T21:21:55-0400",,"FEMALE","LEFT","2014-08-05T21:18:08-0400","Late Response",,"1","1000","0","N/A","ADAPTIVE ANGLE"
"53e18334b6145ef8400923a0","BLUE-00051","2014-08-05T21:21:55-0400",,"FEMALE","LEFT","2014-08-05T21:18:08-0400","Cue Type",,"1","1040","0","N/A","ADAPTIVE ANGLE"
"53e18334b6145ef8400923a0","BLUE-00051","2014-08-05T21:21:55-0400",,"FEMALE","LEFT","2014-08-05T21:18:08-0400","Cue Angle",,"1","1080","0","N/A","96"
"53e18334b6145ef8400923a0","BLUE-00051","2014-08-05T21:21:55-0400",,"FEMALE","LEFT","2014-08-05T21:18:08-0400","Trial Accuracy",,"1","1160","1","N/A","ADAPTIVE ANGLE"
"53e18334b6145ef8400923a0","BLUE-00051","2014-08-05T21:21:55-0400",,"FEMALE","LEFT","2014-08-05T21:18:08-0400","Response Window",,"1","1320","1","N/A","ADAPTIVE ANGLE"
"53e18334b6145ef8400923a0","BLUE-00051","2014-08-05T21:21:55-0400",,"FEMALE","LEFT","2014-08-05T21:18:08-0400","Response Time",,"1","1320","1","N/A","RANDOM IMAGE"
"53e18334b6145ef8400923a0","BLUE-00051","2014-08-05T21:21:55-0400",,"FEMALE","LEFT","2014-08-05T21:18:08-0400","Late Response",,"0","1640","1","N/A","ADAPTIVE ANGLE"
"53e18334b6145ef8400923a0","BLUE-00051","2014-08-05T21:21:55-0400",,"FEMALE","LEFT","2014-08-05T21:18:08-0400","Cue Type",,"0","1630","0","1300.6070256233215","90 DEGREES"
"53e18334b6145ef8400923a0","BLUE-00051","2014-08-05T21:21:55-0400",,"FEMALE","LEFT","2014-08-05T21:18:08-0400","Cue Angle",,"1","1670","0","N/A","102"
"53e18334b6145ef8400923a0","BLUE-00051","2014-08-05T21:21:55-0400",,"FEMALE","LEFT","2014-08-05T21:18:08-0400","Trial Accuracy",,"0","1710","1","1325.7039785385132","ADAPTIVE ANGLE"
"53e18334b6145ef8400923a0","BLUE-00051","2014-08-05T21:21:55-0400",,"FEMALE","LEFT","2014-08-05T21:18:08-0400","Response Window",,"0","1700","1","1417.1810150146484","90 DEGREES"
"53e18334b6145ef8400923a0","BLUE-00051","2014-08-05T21:21:55-0400",,"FEMALE","LEFT","2014-08-05T21:18:08-0400","Response Time",,"0","1700","0","1200.984001159668","ADAPTIVE ANGLE"
"53e18334b6145ef8400923a0","BLUE-00051","2014-08-05T21:21:55-0400",,"FEMALE","LEFT","2014-08-05T21:18:08-0400","Late Response",,"0","1740","1","1200.984001159668","RANDOM IMAGE"
"53e18334b6145ef8400923a0","BLUE-00051","2014-08-05T21:21:55-0400",,"FEMALE","LEFT","2014-08-05T21:18:08-0400","Cue Type",,"0","1730","1","1317.588984966278","90 DEGREES"
"53e18334b6145ef8400923a0","BLUE-00051","2014-08-05T21:21:55-0400",,"FEMALE","LEFT","2014-08-05T21:18:08-0400","Cue Angle",,"0","1720","1","1424.0130186080933","90"
"53e18334b6145ef8400923a0","BLUE-00051","2014-08-05T21:21:55-0400",,"FEMALE","LEFT","2014-08-05T21:18:08-0400","Trial Accuracy",,"0","1700","1","1201.9169926643372","90 DEGREES"
"53e18334b6145ef8400923a0","BLUE-00051","2014-08-05T21:21:55-0400",,"FEMALE","LEFT","2014-08-05T21:18:08-0400","Response Window",,"0","1660","1","1252.2670030593872","RANDOM IMAGE"
"53e18334b6145ef8400923a0","BLUE-00051","2014-08-05T21:21:55-0400",,"FEMALE","LEFT","2014-08-05T21:18:08-0400","Response Time",,"0","1660","1","997.4600076675415","90 DEGREES"
"53e18334b6145ef8400923a0","BLUE-00051","2014-08-05T21:21:55-0400",,"FEMALE","LEFT","2014-08-05T21:18:08-0400","Late Response",,"0","1580","1","997.4600076675415","RANDOM IMAGE"
"53e18334b6145ef8400923a0","BLUE-00051","2014-08-05T21:21:55-0400",,"FEMALE","LEFT","2014-08-05T21:18:08-0400","Cue Type",,"0","1420","1","1300.8469939231873","RANDOM IMAGE"
"53e18334b6145ef8400923a0","BLUE-00051","2014-08-05T21:21:55-0400",,"FEMALE","LEFT","2014-08-05T21:18:08-0400","Cue Angle",,"0","1100","1","1347.1140265464783","DIFFERENT IMAGE"
"53e18334b6145ef8400923a0","BLUE-00051","2014-08-05T21:21:55-0400",,"FEMALE","LEFT","2014-08-05T21:18:08-0400","Trial Accuracy",,"1","1140","0","N/A","RANDOM IMAGE"
"53e18334b6145ef8400923a0","BLUE-00051","2014-08-05T21:21:55-0400",,"FEMALE","LEFT","2014-08-05T21:18:08-0400","Response Window",,"1","1180","0","N/A","ADAPTIVE ANGLE"
"53e18334b6145ef8400923a0","BLUE-00051","2014-08-05T21:21:55-0400",,"FEMALE","LEFT","2014-08-05T21:18:08-0400","Response Time",,"1","1180","1","N/A","90 DEGREES"
"53e18334b6145ef8400923a0","BLUE-00051","2014-08-05T21:21:55-0400",,"FEMALE","LEFT","2014-08-05T21:18:08-0400","Late Response",,"0","1260","1","N/A","RANDOM IMAGE"
"53e18334b6145ef8400923a0","BLUE-00051","2014-08-05T21:21:55-0400",,"FEMALE","LEFT","2014-08-05T21:18:08-0400","Cue Type",,"0","1250","1","1149.0880250930786","90 DEGREES"
"53e18334b6145ef8400923a0","BLUE-00051","2014-08-05T21:21:55-0400",,"FEMALE","LEFT","2014-08-05T21:18:08-0400","Cue Angle",,"0","1240","1","1104.0670275688171","90"
"53e18334b6145ef8400923a0","BLUE-00051","2014-08-05T21:21:55-0400",,"FEMALE","LEFT","2014-08-05T21:18:08-0400","Trial Accuracy",,"1","1280","1","N/A","90 DEGREES"
"53e18334b6145ef8400923a0","BLUE-00051","2014-08-05T21:21:55-0400",,"FEMALE","LEFT","2014-08-05T21:18:08-0400","Response Window",,"0","1270","1","1181.96702003479","RANDOM IMAGE"
"53e18334b6145ef8400923a0","BLUE-00051","2014-08-05T21:21:55-0400",,"FEMALE","LEFT","2014-08-05T21:18:08-0400","Response Time",,"1","1270","1","N/A","90 DEGREES"
"53e2b0cfb6145e20340923a3","BLUE-00051","2014-08-06T18:48:45-0400",,"FEMALE","LEFT","2014-08-06T18:45:18-0400","Late Response",,"1","1000","1","N/A","90 DEGREES"
"53e2b0cfb6145e20340923a3","BLUE-00051","2014-08-06T18:48:45-0400",,"FEMALE","LEFT","2014-08-06T18:45:18-0400","Cue Type",,"1","1040","0","N/A","ADAPTIVE ANGLE"
"53e2b0cfb6145e20340923a3","BLUE-00051","2014-08-06T18:48:45-0400",,"FEMALE","LEFT","2014-08-06T18:45:18-0400","Cue Angle",,"1","1080","1","N/A","DIFFERENT IMAGE"
"53e2b0cfb6145e20340923a3","BLUE-00051","2014-08-06T18:48:45-0400",,"FEMALE","LEFT","2014-08-06T18:45:18-0400","Trial Accuracy",,"0","1070","1","942.1889781951904","RANDOM IMAGE"
"53e2b0cfb6145e20340923a3","BLUE-00051","2014-08-06T18:48:45-0400",,"FEMALE","LEFT","2014-08-06T18:45:18-0400","Response Window",,"1","1110","1","N/A","90 DEGREES"
"53e2b0cfb6145e20340923a3","BLUE-00051","2014-08-06T18:48:45-0400",,"FEMALE","LEFT","2014-08-06T18:45:18-0400","Response Time",,"0","1110","1","914.0610098838806","RANDOM IMAGE"
"53e2b0cfb6145e20340923a3","BLUE-00051","2014-08-06T18:48:45-0400",,"FEMALE","LEFT","2014-08-06T18:45:18-0400","Late Response",,"1","1100","1","914.0610098838806","RANDOM IMAGE"
"53e2b0cfb6145e20340923a3","BLUE-00051","2014-08-06T18:48:45-0400",,"FEMALE","LEFT","2014-08-06T18:45:18-0400","Cue Type",,"1","1140","0","N/A","ADAPTIVE ANGLE"
"53e2b0cfb6145e20340923a3","BLUE-00051","2014-08-06T18:48:45-0400",,"FEMALE","LEFT","2014-08-06T18:45:18-0400","Cue Angle",,"0","1180","1","822.6230144500732","90"
"53e2b0cfb6145e20340923a3","BLUE-00051","2014-08-06T18:48:45-0400",,"FEMALE","LEFT","2014-08-06T18:45:18-0400","Trial Accuracy",,"0","1170","1","1070.9490180015564","90 DEGREES"
"53e2b0cfb6145e20340923a3","BLUE-00051","2014-08-06T18:48:45-0400",,"FEMALE","LEFT","2014-08-06T18:45:18-0400","Response Window",,"0","1160","1","1042.7690148353577","RANDOM IMAGE"
"53e2b0cfb6145e20340923a3","BLUE-00051","2014-08-06T18:48:45-0400",,"FEMALE","LEFT","2014-08-06T18:45:18-0400","Response Time",,"1","1160","1","N/A","RANDOM IMAGE"
"53e2b0cfb6145e20340923a3","BLUE-00051","2014-08-06T18:48:45-0400",,"FEMALE","LEFT","2014-08-06T18:45:18-0400","Late Response",,"0","1200","0","N/A","ADAPTIVE ANGLE"
"53e2b0cfb6145e20340923a3","BLUE-00051","2014-08-06T18:48:45-0400",,"FEMALE","LEFT","2014-08-06T18:45:18-0400","Cue Type",,"0","1240","1","1088.5559916496277","ADAPTIVE ANGLE"
"53e2b0cfb6145e20340923a3","BLUE-00051","2014-08-06T18:48:45-0400",,"FEMALE","LEFT","2014-08-06T18:45:18-0400","Cue Angle",,"1","1320","1","N/A","90"
"53e2b0cfb6145e20340923a3","BLUE-00051","2014-08-06T18:48:45-0400",,"FEMALE","LEFT","2014-08-06T18:45:18-0400","Trial Accuracy",,"0","1310","1","1155.1010012626648","90 DEGREES"
"53e2b0cfb6145e20340923a3","BLUE-00051","2014-08-06T18:48:45-0400",,"FEMALE","LEFT","2014-08-06T18:45:18-0400","Response Window",,"0","1300","1","840.4979705810547","90 DEGREES"
"53e2b0cfb6145e20340923a3","BLUE-00051","2014-08-06T18:48:45-0400",,"FEMALE","LEFT","2014-08-06T18:45:18-0400","Response Time",,"0","1300","0","858.0909967422485","ADAPTIVE ANGLE"
"53e2b0cfb6145e20340923a3","BLUE-00051","2014-08-06T18:48:45-0400",,"FEMALE","LEFT","2014-08-06T18:45:18-0400","Late Response",,"0","1340","1","858.0909967422485","90 DEGREES"
"53e2b0cfb6145e20340923a3","BLUE-00051","2014-08-06T18:48:45-0400",,"FEMALE","LEFT","2014-08-06T18:45:18-0400","Cue Type",,"0","1330","0","857.9049706459045","ADAPTIVE ANGLE"
"53e2b0cfb6145e20340923a3","BLUE-00051","2014-08-06T18:48:45-0400",,"FEMALE","LEFT","2014-08-06T18:45:18-0400","Cue Angle",,"0","1370","1","939.8970007896423","DIFFERENT IMAGE"
"53e2b0cfb6145e20340923a3","BLUE-00051","2014-08-06T18:48:45-0400",,"FEMALE","LEFT","2014-08-06T18:45:18-0400","Trial Accuracy",,"0","1360","1","1012.1840238571167","RANDOM IMAGE"
"53e2b0cfb6145e20340923a3","BLUE-00051","2014-08-06T18:48:45-0400",,"FEMALE","LEFT","2014-08-06T18:45:18-0400","Response Window",,"0","1350","1","1140.3290033340454","90 DEGREES"
"53e2b0cfb6145e20340923a3","BLUE-00051","2014-08-06T18:48:45-0400",,"FEMALE","LEFT","2014-08-06T18:45:18-0400","Response Time",,"0","1350","1","986.3210320472717","90 DEGREES"
"53e2b0cfb6145e20340923a3","BLUE-00051","2014-08-06T18:48:45-0400",,"FEMALE","LEFT","2014-08-06T18:45:18-0400","Late Response",,"0","1330","1","986.3210320472717","RANDOM IMAGE"
"53e2b0cfb6145e20340923a3","BLUE-00051","2014-08-06T18:48:45-0400",,"FEMALE","LEFT","2014-08-06T18:45:18-0400","Cue Type",,"0","1290","1","845.1749682426453","90 DEGREES"
"53e2b0cfb6145e20340923a3","BLUE-00051","2014-08-06T18:48:45-0400",,"FEMALE","LEFT","2014-08-06T18:45:18-0400","Cue Angle",,"0","1210","1","1193.5420036315918","DIFFERENT IMAGE"
"53e2b0cfb6145e20340923a3","BLUE-00051","2014-08-06T18:48:45-0400",,"FEMALE","LEFT","2014-08-06T18:45:18-0400","Trial Accuracy",,"0","1050","0","969.836950302124","RANDOM IMAGE"
"53e2b0cfb6145e20340923a3","BLUE-00051","2014-08-06T18:48:45-0400",,"FEMALE","LEFT","2014-08-06T18:45:18-0400","Response Window",,"0","1090","0","911.5130305290222","ADAPTIVE ANGLE"
"53e2b0cfb6145e20340923a3","BLUE-00051","2014-08-06T18:48:45-0400",,"FEMALE","LEFT","2014-08-06T18:45:18-0400","Response Time",,"1","1090","0","N/A","ADAPTIVE ANGLE"
"53ee8ae7b6145e150eef3afc","BLUE-00062","2014-08-15T15:34:14-0700",,"FEMALE","RIGHT","2014-08-15T15:30:23-0700","Response Time",,"0","1000","1","780.817985534668","RANDOM IMAGE"
"53ee8ae7b6145e150eef3afc","BLUE-00062","2014-08-15T15:34:14-0700",,"FEMALE","RIGHT","2014-08-15T15:30:23-0700","Trial Accuracy",,"0","990","0","780.817985534668","90 DEGREES"
"53ee8ae7b6145e150eef3afc","BLUE-00062","2014-08-15T15:34:14-0700",,"FEMALE","RIGHT","2014-08-15T15:30:23-0700","Response Window",,"0","1030","0","900.2349972724915","RANDOM IMAGE"
"53ee8ae7b6145e150eef3afc","BLUE-00062","2014-08-15T15:34:14-0700",,"FEMALE","RIGHT","2014-08-15T15:30:23-0700","Late Response",,"0","1030","0","801.3499975204468","RANDOM IMAGE"
"53ee8ae7b6145e150eef3afc","BLUE-00062","2014-08-15T15:34:14-0700",,"FEMALE","RIGHT","2014-08-15T15:30:23-0700","Cue Type",,"0","1070","1","711.5529775619507","90 DEGREES"
"53ee8ae7b6145e150eef3afc","BLUE-00062","2014-08-15T15:34:14-0700",,"FEMALE","RIGHT","2014-08-15T15:30:23-0700","Cue Angle",,"0","1060","0","696.9879865646362","90"
"53ee8ae7b6145e150eef3afc","BLUE-00062","2014-08-15T15:34:14-0700",,"FEMALE","RIGHT","2014-08-15T15:30:23-0700","Response Time",,"0","1100","1","715.1550054550171","90 DEGREES"
"53ee8ae7b6145e150eef3afc","BLUE-00062","2014-08-15T15:34:14-0700",,"FEMALE","RIGHT","2014-08-15T15:30:23-0700","Trial Accuracy",,"0","1090","0","715.1550054550171","ADAPTIVE ANGLE"
"53ee8ae7b6145e150eef3afc","BLUE-00062","2014-08-15T15:34:14-0700",,"FEMALE","RIGHT","2014-08-15T15:30:23-0700","Response Window",,"0","1130","0","545.1340079307556","90 DEGREES"
"53ee8ae7b6145e150eef3afc","BLUE-00062","2014-08-15T15:34:14-0700",,"FEMALE","RIGHT","2014-08-15T15:30:23-0700","Late Response",,"0","1130","1","753.3069849014282","ADAPTIVE ANGLE"
"53ee8ae7b6145e150eef3afc","BLUE-00062","2014-08-15T15:34:14-0700",,"FEMALE","RIGHT","2014-08-15T15:30:23-0700","Cue Type",,"0","1120","0","622.8129863739014","RANDOM IMAGE"
"53ee8ae7b6145e150eef3afc","BLUE-00062","2014-08-15T15:34:14-0700",,"FEMALE","RIGHT","2014-08-15T15:30:23-0700","Cue Angle",,"0","1160","0","705.951988697052","DIFFERENT IMAGE"
"53ee8ae7b6145e150eef3afc","BLUE-00062","2014-08-15T15:34:14-0700",,"FEMALE","RIGHT","2014-08-15T15:30:23-0700","Response Time",,"0","1200","1","739.2770051956177","RANDOM IMAGE"
"53ee8ae7b6145e150eef3afc","BLUE-00062","2014-08-15T15:34:14-0700",,"FEMALE","RIGHT","2014-08-15T15:30:23-0700","Trial Accuracy",,"0","1190","0","739.2770051956177","ADAPTIVE ANGLE"
"53ee8ae7b6145e150eef3afc","BLUE-00062","2014-08-15T15:34:14-0700",,"FEMALE","RIGHT","2014-08-15T15:30:23-0700","Response Window",,"0","1230","0","897.6110219955444","90 DEGREES"
"53ee8ae7b6145e150eef3afc","BLUE-00062","2014-08-15T15:34:14-0700",,"FEMALE","RIGHT","2014-08-15T15:30:23-0700","Late Response",,"0","1230","1","734.7739934921265","RANDOM IMAGE"
"53ee8ae7b6145e150eef3afc","BLUE-00062","2014-08-15T15:34:14-0700",,"FEMALE","RIGHT","2014-08-15T15:30:23-0700","Cue Type",,"0","1220","1","819.9560046195984","90 DEGREES"
"53ee8ae7b6145e150eef3afc","BLUE-00062","2014-08-15T15:34:14-0700",,"FEMALE","RIGHT","2014-08-15T15:30:23-0700","Cue Angle",,"0","1210","1","703.9719820022583","90"
"53ee8ae7b6145e150eef3afc","BLUE-00062","2014-08-15T15:34:14-0700",,"FEMALE","RIGHT","2014-08-15T15:30:23-0700","Response Time",,"0","1190","1","819.1219568252563","ADAPTIVE ANGLE"
"53ee8ae7b6145e150eef3afc","BLUE-00062","2014-08-15T15:34:14-0700",,"FEMALE","RIGHT","2014-08-15T15:30:23-0700","Trial Accuracy",,"0","1150","0","819.1219568252563","ADAPTIVE ANGLE"
"53ee8ae7b6145e150eef3afc","BLUE-00062","2014-08-15T15:34:14-0700",,"FEMALE","RIGHT","2014-08-15T15:30:23-0700","Response Window",,"0","1190","0","832.8189849853516","RANDOM IMAGE"
"53ee8ae7b6145e150eef3afc","BLUE-00062","2014-08-15T15:34:14-0700",,"FEMALE","RIGHT","2014-08-15T15:30:23-0700","Late Response",,"0","1190","1","637.7710103988647","ADAPTIVE ANGLE"
"53ee8ae7b6145e150eef3afc","BLUE-00062","2014-08-15T15:34:14-0700",,"FEMALE","RIGHT","2014-08-15T15:30:23-0700","Cue Type",,"0","1180","0","574.275016784668","ADAPTIVE ANGLE"
"53ee8ae7b6145e150eef3afc","BLUE-00062","2014-08-15T15:34:14-0700",,"FEMALE","RIGHT","2014-08-15T15:30:23-0700","Cue Angle",,"0","1220","0","811.0910058021545","104"
"53ee8ae7b6145e150eef3afc","BLUE-00062","2014-08-15T15:34:14-0700",,"FEMALE","RIGHT","2014-08-15T15:30:23-0700","Response Time",,"0","1260","0","664.2190217971802","90 DEGREES"
"53ee8ae7b6145e150eef3afc","BLUE-00062","2014-08-15T15:34:14-0700",,"FEMALE","RIGHT","2014-08-15T15:30:23-0700","Trial Accuracy",,"0","1340","0","664.2190217971802","ADAPTIVE ANGLE"
"53ee8ae7b6145e150eef3afc","BLUE-00062","2014-08-15T15:34:14-0700",,"FEMALE","RIGHT","2014-08-15T15:30:23-0700","Response Window",,"0","1500","0","663.4719967842102","RANDOM IMAGE"
"53ee8ae7b6145e150eef3afc","BLUE-00062","2014-08-15T15:34:14-0700",,"FEMALE","RIGHT","2014-08-15T15:30:23-0700","Late Response",,"0","1500","1","881.7800283432007","90 DEGREES"
"53ee8ae7b6145e150eef3afc","BLUE-00062","2014-08-15T15:34:14-0700",,"FEMALE","RIGHT","2014-08-15T15:30:23-0700","Cue Type",,"0","1490","1","640.7449841499329","90 DEGREES"
"53ee8ae7b6145e150eef3afc","BLUE-00062","2014-08-15T15:34:14-0700",,"FEMALE","RIGHT","2014-08-15T15:30:23-0700","Cue Angle",,"0","1480","1","631.8100094795227","90"
"5406b35fb6145e0d37358d3c","GREEN-00046","2014-09-02T23:21:19-0700",,,,"2014-09-02T23:17:26-0700","Late Response",,"0","1000","0","631.8100094795227","ADAPTIVE ANGLE"
"5406b35fb6145e0d37358d3c","GREEN-00046","2014-09-02T23:21:19-0700",,,,"2014-09-02T23:17:26-0700","Cue Type",,"0","1040","1","682.3320388793945","90 DEGREES"
"5406b35fb6145e0d37358d3c","GREEN-00046","2014-09-02T23:21:19-0700",,,,"2014-09-02T23:17:26-0700","Cue Angle",,"0","1030","0","640.0450468063354","DIFFERENT IMAGE"
"5406b35fb6145e0d37358d3c","GREEN-00046","2014-09-02T23:21:19-0700",,,,"2014-09-02T23:17:26-0700","Trial Accuracy",,"0","1070","0","712.5610113143921","RANDOM IMAGE"
"5406b35fb6145e0d37358d3c","GREEN-00046","2014-09-02T23:21:19-0700",,,,"2014-09-02T23:17:26-0700","Response Window",,"0","1110","0","696.1319446563721","ADAPTIVE ANGLE"
"5406b35fb6145e0d37358d3c","GREEN-00046","2014-09-02T23:21:19-0700",,,,"2014-09-02T23:17:26-0700","Response Time",,"0","1110","1","768.7599658966064","RANDOM IMAGE"
"5406b35fb6145e0d37358d3c","GREEN-00046","2014-09-02T23:21:19-0700",,,,"2014-09-02T23:17:26-0700","Late Response",,"0","1100","1","768.7599658966064","RANDOM IMAGE"
"5406b35fb6145e0d37358d3c","GREEN-00046","2014-09-02T23:21:19-0700",,,,"2014-09-02T23:17:26-0700","Cue Type",,"0","1090","1","866.2149906158447","90 DEGREES"
"5406b35fb6145e0d37358d3c","GREEN-00046","2014-09-02T23:21:19-0700",,,,"2014-09-02T23:17:26-0700","Cue Angle",,"0","1070","0","778.564989566803","96"
"5406b35fb6145e0d37358d3c","GREEN-00046","2014-09-02T23:21:19-0700",,,,"2014-09-02T23:17:26-0700","Trial Accuracy",,"0","1110","1","769.8349952697754","ADAPTIVE ANGLE"
"5406b35fb6145e0d37358d3c","GREEN-00046","2014-09-02T23:21:19-0700",,,,"2014-09-02T23:17:26-0700","Response Window",,"0","1100","1","880.8630108833313","ADAPTIVE ANGLE"
"5406b35fb6145e0d37358d3c","GREEN-00046","2014-09-02T23:21:19-0700",,,,"2014-09-02T23:17:26-0700","Response Time",,"1","1100","0","N/A","90 DEGREES"
"5406b35fb6145e0d37358d3c","GREEN-00046","2014-09-02T23:21:19-0700",,,,"2014-09-02T23:17:26-0700","Late Response",,"0","1140","1","N/A","RANDOM IMAGE"
"5406b35fb6145e0d37358d3c","GREEN-00046","2014-09-02T23:21:19-0700",,,,"2014-09-02T23:17:26-0700","Cue Type",,"0","1130","1","783.7080359458923","RANDOM IMAGE"
"5406b35fb6145e0d37358d3c","GREEN-00046","2014-09-02T23:21:19-0700",,,,"2014-09-02T23:17:26-0700","Cue Angle",,"0","1120","1","864.8989796638489","DIFFERENT IMAGE"
"5406b35fb6145e0d37358d3c","GREEN-00046","2014-09-02T23:21:19-0700",,,,"2014-09-02T23:17:26-0700","Trial Accuracy",,"0","1100","0","745.9779977798462","RANDOM IMAGE"
"5406b35fb6145e0d37358d3c","GREEN-00046","2014-09-02T23:21:19-0700",,,,"2014-09-02T23:17:26-0700","Response Window",,"0","1140","0","617.9420351982117","90 DEGREES"
"5406b35fb6145e0d37358d3c","GREEN-00046","2014-09-02T23:21:19-0700",,,,"2014-09-02T23:17:26-0700","Response Time",,"0","1140","1","901.9239544868469","ADAPTIVE ANGLE"
"5406b35fb6145e0d37358d3c","GREEN-00046","2014-09-02T23:21:19-0700",,,,"2014-09-02T23:17:26-0700","Late Response",,"0","1130","1","901.9239544868469","90 DEGREES"
"5406b35fb6145e0d37358d3c","GREEN-00046","2014-09-02T23:21:19-0700",,,,"2014-09-02T23:17:26-0700","Cue Type",,"0","1120","1","836.9939923286438","RANDOM IMAGE"
"5406b35fb6145e0d37358d3c","GREEN-00046","2014-09-02T23:21:19-0700",,,,"2014-09-02T23:17:26-0700","Cue Angle",,"0","1100","0","886.2919807434082","102"
"5406b35fb6145e0d37358d3c","GREEN-00046","2014-09-02T23:21:19-0700",,,,"2014-09-02T23:17:26-0700","Trial Accuracy",,"0","1140","0","869.6679472923279","ADAPTIVE ANGLE"
"5406b35fb6145e0d37358d3c","GREEN-00046","2014-09-02T23:21:19-0700",,,,"2014-09-02T23:17:26-0700","Response Window",,"0","1180","0","912.1959805488586","ADAPTIVE ANGLE"
"5406b35fb6145e0d37358d3c","GREEN-00046","2014-09-02T23:21:19-0700",,,,"2014-09-02T23:17:26-0700","Response Time",,"0","1180","1","835.4830145835876","90 DEGREES"
"5406b35fb6145e0d37358d3c","GREEN-00046","2014-09-02T23:21:19-0700",,,,"2014-09-02T23:17:26-0700","Late Response",,"1","1170","1","835.4830145835876","90 DEGREES"
"5406b35fb6145e0d37358d3c","GREEN-00046","2014-09-02T23:21:19-0700",,,,"2014-09-02T23:17:26-0700","Cue Type",,"1","1210","0","N/A","ADAPTIVE ANGLE"
"5406b35fb6145e0d37358d3c","GREEN-00046","2014-09-02T23:21:19-0700",,,,"2014-09-02T23:17:26-0700","Cue Angle",,"0","1250","1","987.4350428581238","90"
"5406b35fb6145e0d37358d3c","GREEN-00046","2014-09-02T23:21:19-0700",,,,"2014-09-02T23:17:26-0700","Trial Accuracy",,"0","1240","0","1103.5299897193909","90 DEGREES"
"5406b35fb6145e0d37358d3c","GREEN-00046","2014-09-02T23:21:19-0700",,,,"2014-09-02T23:17:26-0700","Response Window",,"0","1280","0","981.893002986908","90 DEGREES"
"5406b35fb6145e0d37358d3c","GREEN-00046","2014-09-02T23:21:19-0700",,,,"2014-09-02T23:17:26-0700","Response Time",,"0","1280","1","733.4190011024475","RANDOM IMAGE"
"54078590b6145e1729358d39","BLUE-00072","2014-09-03T14:18:10-0700",,"FEMALE","RIGHT","2014-09-03T14:14:38-0700","Response Time",,"0","1000","0","844.8149561882019","ADAPTIVE ANGLE"
"54078590b6145e1729358d39","BLUE-00072","2014-09-03T14:18:10-0700",,"FEMALE","RIGHT","2014-09-03T14:14:38-0700","Trial Accuracy",,"0","1040","1","844.8149561882019","RANDOM IMAGE"
"54078590b6145e1729358d39","BLUE-00072","2014-09-03T14:18:10-0700",,"FEMALE","RIGHT","2014-09-03T14:14:38-0700","Response Window",,"0","1030","1","1003.6829710006714","RANDOM IMAGE"
"54078590b6145e1729358d39","BLUE-00072","2014-09-03T14:18:10-0700",,"FEMALE","RIGHT","2014-09-03T14:14:38-0700","Late Response",,"0","1030","0","861.3319993019104","90 DEGREES"
"54078590b6145e1729358d39","BLUE-00072","2014-09-03T14:18:10-0700",,"FEMALE","RIGHT","2014-09-03T14:14:38-0700","Cue Type",,"0","1070","1","871.1420297622681","90 DEGREES"
"54078590b6145e1729358d39","BLUE-00072","2014-09-03T14:18:10-0700",,"FEMALE","RIGHT","2014-09-03T14:14:38-0700","Cue Angle",,"0","1060","1","809.6739649772644","90"
"54078590b6145e1729358d39","BLUE-00072","2014-09-03T14:18:10-0700",,"FEMALE","RIGHT","2014-09-03T14:14:38-0700","Response Time",,"0","1050","1","907.7720046043396","RANDOM IMAGE"
"54078590b6145e1729358d39","BLUE-00072","2014-09-03T14:18:10-0700",,"FEMALE","RIGHT","2014-09-03T14:14:38-0700","Trial Accuracy",,"0","1030","0","907.7720046043396","ADAPTIVE ANGLE"
"54078590b6145e1729358d39","BLUE-00072","2014-09-03T14:18:10-0700",,"FEMALE","RIGHT","2014-09-03T14:14:38-0700","Response Window",,"0","1070","0","805.0839900970459","ADAPTIVE ANGLE"
"54078590b6145e1729358d39","BLUE-00072","2014-09-03T14:18:10-0700",,"FEMALE","RIGHT","2014-09-03T14:14:38-0700","Late Response",,"0","1070","0","818.7540173530579","90 DEGREES"
"54078590b6145e1729358d39","BLUE-00072","2014-09-03T14:18:10-0700",,"FEMALE","RIGHT","2014-09-03T14:14:38-0700","Cue Type",,"0","1110","1","859.8160147666931","ADAPTIVE ANGLE"
"54078590b6145e1729358d39","BLUE-00072","2014-09-03T14:18:10-0700",,"FEMALE","RIGHT","2014-09-03T14:14:38-0700","Cue Angle",,"0","1100","0","825.4249691963196","98"
"54078590b6145e1729358d39","BLUE-00072","2014-09-03T14:18:10-0700",,"FEMALE","RIGHT","2014-09-03T14:14:38-0700","Response Time",,"0","1140","0","813.618004322052","ADAPTIVE ANGLE"
"54078590b6145e1729358d39","BLUE-00072","2014-09-03T14:18:10-0700",,"FEMALE","RIGHT","2014-09-03T14:14:38-0700","Trial Accuracy",,"0","1180","0","813.618004322052","ADAPTIVE ANGLE"
"54078590b6145e1729358d39","BLUE-00072","2014-09-03T14:18:10-0700",,"FEMALE","RIGHT","2014-09-03T14:14:38-0700","Response Window",,"0","1260","0","847.9269742965698","90 DEGREES"
"54078590b6145e1729358d39","BLUE-00072","2014-09-03T14:18:10-0700",,"FEMALE","RIGHT","2014-09-03T14:14:38-0700","Late Response",,"0","1260","1","812.7000331878662","90 DEGREES"
"54078590b6145e1729358d39","BLUE-00072","2014-09-03T14:18:10-0700",,"FEMALE","RIGHT","2014-09-03T14:14:38-0700","Cue Type",,"0","1250","1","705.4639458656311","ADAPTIVE ANGLE"
"54078590b6145e1729358d39","BLUE-00072","2014-09-03T14:18:10-0700",,"FEMALE","RIGHT","2014-09-03T14:14:38-0700","Cue Angle",,"0","1240","0","910.4459881782532","104"
"54078590b6145e1729358d39","BLUE-00072","2014-09-03T14:18:10-0700",,"FEMALE","RIGHT","2014-09-03T14:14:38-0700","Response Time",,"0","1280","1","1034.8910093307495","RANDOM IMAGE"
"54078590b6145e1729358d39","BLUE-00072","2014-09-03T14:18:10-0700",,"FEMALE","RIGHT","2014-09-03T14:14:38-0700","Response Time",,"1","1270","1","N/A","90 DEGREES"
"54078590b6145e1729358d39","BLUE-00072","2014-09-03T14:18:10-0700",,"FEMALE","RIGHT","2014-09-03T14:14:38-0700","Response Window",,"0","1310","0","N/A","RANDOM IMAGE"
"54078590b6145e1729358d39","BLUE-00072","2014-09-03T14:18:10-0700",,"FEMALE","RIGHT","2014-09-03T14:14:38-0700","Late Response",,"0","1310","1","1031.4489603042603","90 DEGREES"
"54078590b6145e1729358d39","BLUE-00072","2014-09-03T14:18:10-0700",,"FEMALE","RIGHT","2014-09-03T14:14:38-0700","Cue Type",,"0","1300","0","940.9039616584778","ADAPTIVE ANGLE"
"54078590b6145e1729358d39","BLUE-00072","2014-09-03T14:18:10-0700",,"FEMALE","RIGHT","2014-09-03T14:14:38-0700","Cue Angle",,"0","1340","0","718.5230255126953","106"
"54078590b6145e1729358d39","BLUE-00072","2014-09-03T14:18:10-0700",,"FEMALE","RIGHT","2014-09-03T14:14:38-0700","Response Time",,"0","1380","1","858.7929606437683","RANDOM IMAGE"
"54078590b6145e1729358d39","BLUE-00072","2014-09-03T14:18:10-0700",,"FEMALE","RIGHT","2014-09-03T14:14:38-0700","Trial Accuracy",,"0","1370","1","858.7929606437683","RANDOM IMAGE"
"54078590b6145e1729358d39","BLUE-00072","2014-09-03T14:18:10-0700",,"FEMALE","RIGHT","2014-09-03T14:14:38-0700","Response Window",,"0","1360","1","866.4160370826721","90 DEGREES"
"54078590b6145e1729358d39","BLUE-00072","2014-09-03T14:18:10-0700",,"FEMALE","RIGHT","2014-09-03T14:14:38-0700","Late Response",,"0","1360","1","837.1239900588989","90 DEGREES"
"54078590b6145e1729358d39","BLUE-00072","2014-09-03T14:18:10-0700",,"FEMALE","RIGHT","2014-09-03T14:14:38-0700","Cue Type",,"0","1340","1","828.9719820022583","RANDOM IMAGE"
"54078590b6145e1729358d39","BLUE-00072","2014-09-03T14:18:10-0700",,"FEMALE","RIGHT","2014-09-03T14:14:38-0700","Cue Angle",,"0","1300","1","928.9950132369995","DIFFERENT IMAGE"
"538d5da8b6145e35453b63d1","BLUE-00044","2014-06-02T22:31:19-0700","Joaq email","MALE","RIGHT","2014-06-02T22:30:54-0700","Cue Angle",,"1","1000","0","N/A","-8"
"53aa0bceb6145ef0371cb2f3","GREEN-09998","2014-06-24T16:37:49-0700",,"MALE","LEFT","2014-06-24T16:33:56-0700","Cue Angle",,"0","1000","1","676.6669750213623","90"
"53aa0bceb6145ef0371cb2f3","GREEN-09998","2014-06-24T16:37:49-0700",,"MALE","LEFT","2014-06-24T16:33:56-0700","Cue Angle",,"0","990","0","755.6220293045044","90"
"53aa0bceb6145ef0371cb2f3","GREEN-09998","2014-06-24T16:37:49-0700",,"MALE","LEFT","2014-06-24T16:33:56-0700","Cue Angle",,"0","1030","0","709.119975566864","86"
"53aa0bceb6145ef0371cb2f3","GREEN-09998","2014-06-24T16:37:49-0700",,"MALE","LEFT","2014-06-24T16:33:56-0700","Cue Angle",,"1","1070","0","N/A","82"
"53aa0bceb6145ef0371cb2f3","GREEN-09998","2014-06-24T16:37:49-0700",,"MALE","LEFT","2014-06-24T16:33:56-0700","Cue Angle",,"0","1150","1","839.5569920539856","DIFFERENT IMAGE"
"53aa0bceb6145ef0371cb2f3","GREEN-09998","2014-06-24T16:37:49-0700",,"MALE","LEFT","2014-06-24T16:33:56-0700","Cue Angle",,"0","1140","1","772.4960446357727","DIFFERENT IMAGE"
"53aa0bceb6145ef0371cb2f3","GREEN-09998","2014-06-24T16:37:49-0700",,"MALE","LEFT","2014-06-24T16:33:56-0700","Cue Angle",,"0","1130","1","699.7560262680054","90"
"53aa0bceb6145ef0371cb2f3","GREEN-09998","2014-06-24T16:37:49-0700",,"MALE","LEFT","2014-06-24T16:33:56-0700","Cue Angle",,"0","1110","1","686.5419745445251","DIFFERENT IMAGE"
"53aa0bceb6145ef0371cb2f3","GREEN-09998","2014-06-24T16:37:49-0700",,"MALE","LEFT","2014-06-24T16:33:56-0700","Cue Angle",,"0","1070","1","832.1959972381592","23"
"53aa0bceb6145ef0371cb2f3","GREEN-09998","2014-06-24T16:37:49-0700",,"MALE","LEFT","2014-06-24T16:33:56-0700","Cue Angle",,"0","990","0","938.398003578186","25"
"53aa0bceb6145ef0371cb2f3","GREEN-09998","2014-06-24T16:37:49-0700",,"MALE","LEFT","2014-06-24T16:33:56-0700","Cue Angle",,"0","1030","1","677.0280003547668","DIFFERENT IMAGE"
"53aa0bceb6145ef0371cb2f3","GREEN-09998","2014-06-24T16:37:49-0700",,"MALE","LEFT","2014-06-24T16:33:56-0700","Cue Angle",,"0","1020","1","688.5510087013245","DIFFERENT IMAGE"
"53aa0bceb6145ef0371cb2f3","GREEN-09998","2014-06-24T16:37:49-0700",,"MALE","LEFT","2014-06-24T16:33:56-0700","Cue Angle",,"0","1010","1","606.4369678497314","108"
"53aa0bceb6145ef0371cb2f3","GREEN-09998","2014-06-24T16:37:49-0700",,"MALE","LEFT","2014-06-24T16:33:56-0700","Cue Angle",,"0","990","1","815.9720301628113","90"
"53aa0bceb6145ef0371cb2f3","GREEN-09998","2014-06-24T16:37:49-0700",,"MALE","LEFT","2014-06-24T16:33:56-0700","Cue Angle",,"0","950","0","866.989016532898","92"
"53aa0bceb6145ef0371cb2f3","GREEN-09998","2014-06-24T16:37:49-0700",,"MALE","LEFT","2014-06-24T16:33:56-0700","Cue Angle",,"0","990","1","714.3200039863586","DIFFERENT IMAGE"
"53aa0bceb6145ef0371cb2f3","GREEN-09998","2014-06-24T16:37:49-0700",,"MALE","LEFT","2014-06-24T16:33:56-0700","Cue Angle",,"0","980","0","819.5019960403442","90"
"53aa0bceb6145ef0371cb2f3","GREEN-09998","2014-06-24T16:37:49-0700",,"MALE","LEFT","2014-06-24T16:33:56-0700","Cue Angle",,"0","1020","1","665.0229692459106","DIFFERENT IMAGE"
"53aa0bceb6145ef0371cb2f3","GREEN-09998","2014-06-24T16:37:49-0700",,"MALE","LEFT","2014-06-24T16:33:56-0700","Cue Angle",,"0","1010","0","697.9730129241943","155"
"53aa0bceb6145ef0371cb2f3","GREEN-09998","2014-06-24T16:37:49-0700",,"MALE","LEFT","2014-06-24T16:33:56-0700","Cue Angle",,"0","1050","1","692.2330260276794","90"
"53aa0bceb6145ef0371cb2f3","GREEN-09998","2014-06-24T16:37:49-0700",,"MALE","LEFT","2014-06-24T16:33:56-0700","Cue Angle",,"0","1040","0","717.5390124320984","90"
"53aa0bceb6145ef0371cb2f3","GREEN-09998","2014-06-24T16:37:49-0700",,"MALE","LEFT","2014-06-24T16:33:56-0700","Cue Angle",,"0","1080","0","590.1850461959839","86"
"53aa0bceb6145ef0371cb2f3","GREEN-09998","2014-06-24T16:37:49-0700",,"MALE","LEFT","2014-06-24T16:33:56-0700","Cue Angle",,"0","1120","1","735.4450225830078","90"
"53aa0bceb6145ef0371cb2f3","GREEN-09998","2014-06-24T16:37:49-0700",,"MALE","LEFT","2014-06-24T16:33:56-0700","Cue Angle",,"0","1110","1","713.2270336151123","DIFFERENT IMAGE"
"53aa0bceb6145ef0371cb2f3","GREEN-09998","2014-06-24T16:37:49-0700",,"MALE","LEFT","2014-06-24T16:33:56-0700","Cue Angle",,"0","1100","1","696.9050168991089","90"
"53bf6313b6145e76791b9b18","GREEN-09994","2014-07-10T21:06:26-0700",,"FEMALE","RIGHT","2014-07-09T10:07:20-0700","Cue Angle",,"0","1000","1","795.1369881629944","90"
"53bf6313b6145e76791b9b18","GREEN-09994","2014-07-10T21:06:26-0700",,"FEMALE","RIGHT","2014-07-09T10:07:20-0700","Cue Angle",,"0","990","1","932.9299926757812","90"
"53bf6313b6145e76791b9b18","GREEN-09994","2014-07-10T21:06:26-0700",,"FEMALE","RIGHT","2014-07-09T10:07:20-0700","Cue Angle",,"0","980","1","712.0530009269714","90"
"53bf6313b6145e76791b9b18","GREEN-09994","2014-07-10T21:06:26-0700",,"FEMALE","RIGHT","2014-07-09T10:07:20-0700","Cue Angle",,"0","960","0","722.7620482444763","92"
"53bf6313b6145e76791b9b18","GREEN-09994","2014-07-10T21:06:26-0700",,"FEMALE","RIGHT","2014-07-09T10:07:20-0700","Cue Angle",,"0","1000","1","858.3730459213257","DIFFERENT IMAGE"
"53bf6313b6145e76791b9b18","GREEN-09994","2014-07-10T21:06:26-0700",,"FEMALE","RIGHT","2014-07-09T10:07:20-0700","Cue Angle",,"1","990","1","N/A","94"
"53bf6313b6145e76791b9b18","GREEN-09994","2014-07-10T21:06:26-0700",,"FEMALE","RIGHT","2014-07-09T10:07:20-0700","Cue Angle",,"1","1030","1","N/A","DIFFERENT IMAGE"
"53bf6313b6145e76791b9b18","GREEN-09994","2014-07-10T21:06:26-0700",,"FEMALE","RIGHT","2014-07-09T10:07:20-0700","Cue Angle",,"0","1070","1","784.2010259628296","90"
"53bf6313b6145e76791b9b18","GREEN-09994","2014-07-10T21:06:26-0700",,"FEMALE","RIGHT","2014-07-09T10:07:20-0700","Cue Angle",,"0","1060","1","863.906979560852","DIFFERENT IMAGE"
"53bf6313b6145e76791b9b18","GREEN-09994","2014-07-10T21:06:26-0700",,"FEMALE","RIGHT","2014-07-09T10:07:20-0700","Cue Angle",,"0","1050","1","915.1909947395325","DIFFERENT IMAGE"
"53bf6313b6145e76791b9b18","GREEN-09994","2014-07-10T21:06:26-0700",,"FEMALE","RIGHT","2014-07-09T10:07:20-0700","Cue Angle",,"0","1030","1","723.580002784729","DIFFERENT IMAGE"
"53bf6313b6145e76791b9b18","GREEN-09994","2014-07-10T21:06:26-0700",,"FEMALE","RIGHT","2014-07-09T10:07:20-0700","Cue Angle",,"0","990","0","864.1790151596069","90"
"53bf6313b6145e76791b9b18","GREEN-09994","2014-07-10T21:06:26-0700",,"FEMALE","RIGHT","2014-07-09T10:07:20-0700","Cue Angle",,"1","1030","0","N/A","96"
"53bf6313b6145e76791b9b18","GREEN-09994","2014-07-10T21:06:26-0700",,"FEMALE","RIGHT","2014-07-09T10:07:20-0700","Cue Angle",,"0","1070","1","946.636974811554","90"
"53bf6313b6145e76791b9b18","GREEN-09994","2014-07-10T21:06:26-0700",,"FEMALE","RIGHT","2014-07-09T10:07:20-0700","Cue Angle",,"0","1060","0","639.66304063797","98"
"53bf6313b6145e76791b9b18","GREEN-09994","2014-07-10T21:06:26-0700",,"FEMALE","RIGHT","2014-07-09T10:07:20-0700","Cue Angle",,"0","1100","1","882.4179768562317","DIFFERENT IMAGE"
"53bf6313b6145e76791b9b18","GREEN-09994","2014-07-10T21:06:26-0700",,"FEMALE","RIGHT","2014-07-09T10:07:20-0700","Cue Angle",,"0","1090","0","917.5670146942139","100"
"53bf6313b6145e76791b9b18","GREEN-09994","2014-07-10T21:06:26-0700",,"FEMALE","RIGHT","2014-07-09T10:07:20-0700","Cue Angle",,"0","1130","0","1060.010015964508","102"
"53bf6313b6145e76791b9b18","GREEN-09994","2014-07-10T21:06:26-0700",,"FEMALE","RIGHT","2014-07-09T10:07:20-0700","Cue Angle",,"0","1170","1","974.2559790611267","90"
"53bf6313b6145e76791b9b18","GREEN-09994","2014-07-10T21:06:26-0700",,"FEMALE","RIGHT","2014-07-09T10:07:20-0700","Cue Angle",,"0","1160","1","899.7960090637207","DIFFERENT IMAGE"
"53bf6313b6145e76791b9b18","GREEN-09994","2014-07-10T21:06:26-0700",,"FEMALE","RIGHT","2014-07-09T10:07:20-0700","Cue Angle",,"1","1150","1","N/A","90"
"53bf6313b6145e76791b9b18","GREEN-09994","2014-07-10T21:06:26-0700",,"FEMALE","RIGHT","2014-07-09T10:07:20-0700","Cue Angle",,"0","1190","1","854.362964630127","90"
"53bf6313b6145e76791b9b18","GREEN-09994","2014-07-10T21:06:26-0700",,"FEMALE","RIGHT","2014-07-09T10:07:20-0700","Cue Angle",,"0","1180","0","813.7419819831848","104"
"53bf6313b6145e76791b9b18","GREEN-09994","2014-07-10T21:06:26-0700",,"FEMALE","RIGHT","2014-07-09T10:07:20-0700","Cue Angle",,"0","1220","1","943.5930252075195","90"
"53bf6313b6145e76791b9b18","GREEN-09994","2014-07-10T21:06:26-0700",,"FEMALE","RIGHT","2014-07-09T10:07:20-0700","Cue Angle",,"0","1210","0","891.7490243911743","106"
"53bf6313b6145e76791b9b18","GREEN-09994","2014-07-10T21:06:26-0700",,"FEMALE","RIGHT","2014-07-09T10:07:20-0700","Cue Angle",,"0","1250","1","829.7719955444336","90"
"53bf6313b6145e76791b9b18","GREEN-09994","2014-07-10T21:06:26-0700",,"FEMALE","RIGHT","2014-07-09T10:07:20-0700","Cue Angle",,"0","1240","0","856.3469648361206","108"
"53bf6313b6145e76791b9b18","GREEN-09994","2014-07-10T21:06:26-0700",,"FEMALE","RIGHT","2014-07-09T10:07:20-0700","Cue Angle",,"1","1280","1","N/A","110"
"53bf6313b6145e76791b9b18","GREEN-09994","2014-07-10T21:06:26-0700",,"FEMALE","RIGHT","2014-07-09T10:07:20-0700","Cue Angle",,"0","1320","1","1193.4219598770142","DIFFERENT IMAGE"
"53bf6313b6145e76791b9b18","GREEN-09994","2014-07-10T21:06:26-0700",,"FEMALE","RIGHT","2014-07-09T10:07:20-0700","Cue Angle",,"0","1310","1","923.4949946403503","DIFFERENT IMAGE"
"53c0997bb6145e94791b9b1a","GREEN-09994","2014-07-10T21:06:26-0700",,"FEMALE","RIGHT","2014-07-09T10:07:20-0700","Cue Angle",,"0","1000","1","795.1369881629944","90"
"53c0997bb6145e94791b9b1a","GREEN-09994","2014-07-10T21:06:26-0700",,"FEMALE","RIGHT","2014-07-09T10:07:20-0700","Cue Angle",,"0","990","1","932.9299926757812","90"
"53c0997bb6145e94791b9b1a","GREEN-09994","2014-07-10T21:06:26-0700",,"FEMALE","RIGHT","2014-07-09T10:07:20-0700","Cue Angle",,"0","980","1","712.0530009269714","90"
"53c0997bb6145e94791b9b1a","GREEN-09994","2014-07-10T21:06:26-0700",,"FEMALE","RIGHT","2014-07-09T10:07:20-0700","Cue Angle",,"0","960","0","722.7620482444763","92"
"53c0997bb6145e94791b9b1a","GREEN-09994","2014-07-10T21:06:26-0700",,"FEMALE","RIGHT","2014-07-09T10:07:20-0700","Cue Angle",,"0","1000","1","858.3730459213257","DIFFERENT IMAGE"
"53c0997bb6145e94791b9b1a","GREEN-09994","2014-07-10T21:06:26-0700",,"FEMALE","RIGHT","2014-07-09T10:07:20-0700","Cue Angle",,"1","990","1","N/A","94"
"53c0997bb6145e94791b9b1a","GREEN-09994","2014-07-10T21:06:26-0700",,"FEMALE","RIGHT","2014-07-09T10:07:20-0700","Cue Angle",,"1","1030","1","N/A","DIFFERENT IMAGE"
"53c0997bb6145e94791b9b1a","GREEN-09994","2014-07-10T21:06:26-0700",,"FEMALE","RIGHT","2014-07-09T10:07:20-0700","Cue Angle",,"0","1070","1","784.2010259628296","90"
"53c0997bb6145e94791b9b1a","GREEN-09994","2014-07-10T21:06:26-0700",,"FEMALE","RIGHT","2014-07-09T10:07:20-0700","Cue Angle",,"0","1060","1","863.906979560852","DIFFERENT IMAGE"
"53c0997bb6145e94791b9b1a","GREEN-09994","2014-07-10T21:06:26-0700",,"FEMALE","RIGHT","2014-07-09T10:07:20-0700","Cue Angle",,"0","1050","1","915.1909947395325","DIFFERENT IMAGE"
"53c0997bb6145e94791b9b1a","GREEN-09994","2014-07-10T21:06:26-0700",,"FEMALE","RIGHT","2014-07-09T10:07:20-0700","Cue Angle",,"0","1030","1","723.580002784729","DIFFERENT IMAGE"
"53c0997bb6145e94791b9b1a","GREEN-09994","2014-07-10T21:06:26-0700",,"FEMALE","RIGHT","2014-07-09T10:07:20-0700","Cue Angle",,"0","990","0","864.1790151596069","90"
"53c0997bb6145e94791b9b1a","GREEN-09994","2014-07-10T21:06:26-0700",,"FEMALE","RIGHT","2014-07-09T10:07:20-0700","Cue Angle",,"1","1030","0","N/A","96"
"53c0997bb6145e94791b9b1a","GREEN-09994","2014-07-10T21:06:26-0700",,"FEMALE","RIGHT","2014-07-09T10:07:20-0700","Cue Angle",,"0","1070","1","946.636974811554","90"
"53c0997bb6145e94791b9b1a","GREEN-09994","2014-07-10T21:06:26-0700",,"FEMALE","RIGHT","2014-07-09T10:07:20-0700","Cue Angle",,"0","1060","0","639.66304063797","98"
"53c0997bb6145e94791b9b1a","GREEN-09994","2014-07-10T21:06:26-0700",,"FEMALE","RIGHT","2014-07-09T10:07:20-0700","Cue Angle",,"0","1100","1","882.4179768562317","DIFFERENT IMAGE"
"53c0997bb6145e94791b9b1a","GREEN-09994","2014-07-10T21:06:26-0700",,"FEMALE","RIGHT","2014-07-09T10:07:20-0700","Cue Angle",,"0","1090","0","917.5670146942139","100"
"53c0997bb6145e94791b9b1a","GREEN-09994","2014-07-10T21:06:26-0700",,"FEMALE","RIGHT","2014-07-09T10:07:20-0700","Cue Angle",,"0","1130","0","1060.010015964508","102"
"53c0997bb6145e94791b9b1a","GREEN-09994","2014-07-10T21:06:26-0700",,"FEMALE","RIGHT","2014-07-09T10:07:20-0700","Cue Angle",,"0","1170","1","974.2559790611267","90"
"53c0997bb6145e94791b9b1a","GREEN-09994","2014-07-10T21:06:26-0700",,"FEMALE","RIGHT","2014-07-09T10:07:20-0700","Cue Angle",,"0","1160","1","899.7960090637207","DIFFERENT IMAGE"
"53c0997bb6145e94791b9b1a","GREEN-09994","2014-07-10T21:06:26-0700",,"FEMALE","RIGHT","2014-07-09T10:07:20-0700","Cue Angle",,"1","1150","1","N/A","90"
"53c0997bb6145e94791b9b1a","GREEN-09994","2014-07-10T21:06:26-0700",,"FEMALE","RIGHT","2014-07-09T10:07:20-0700","Cue Angle",,"0","1190","1","854.362964630127","90"
"53c0997bb6145e94791b9b1a","GREEN-09994","2014-07-10T21:06:26-0700",,"FEMALE","RIGHT","2014-07-09T10:07:20-0700","Cue Angle",,"0","1180","0","813.7419819831848","104"
"53c0997bb6145e94791b9b1a","GREEN-09994","2014-07-10T21:06:26-0700",,"FEMALE","RIGHT","2014-07-09T10:07:20-0700","Cue Angle",,"0","1220","1","943.5930252075195","90"
"53c0997bb6145e94791b9b1a","GREEN-09994","2014-07-10T21:06:26-0700",,"FEMALE","RIGHT","2014-07-09T10:07:20-0700","Cue Angle",,"0","1210","0","891.7490243911743","106"
"53c0997bb6145e94791b9b1a","GREEN-09994","2014-07-10T21:06:26-0700",,"FEMALE","RIGHT","2014-07-09T10:07:20-0700","Cue Angle",,"0","1250","1","829.7719955444336","90"
"53c0997bb6145e94791b9b1a","GREEN-09994","2014-07-10T21:06:26-0700",,"FEMALE","RIGHT","2014-07-09T10:07:20-0700","Cue Angle",,"0","1240","0","856.3469648361206","108"
"53c0997bb6145e94791b9b1a","GREEN-09994","2014-07-10T21:06:26-0700",,"FEMALE","RIGHT","2014-07-09T10:07:20-0700","Cue Angle",,"1","1280","1","N/A","110"
"53c0997bb6145e94791b9b1a","GREEN-09994","2014-07-10T21:06:26-0700",,"FEMALE","RIGHT","2014-07-09T10:07:20-0700","Cue Angle",,"0","1320","1","1193.4219598770142","DIFFERENT IMAGE"
"53c0997bb6145e94791b9b1a","GREEN-09994","2014-07-10T21:06:26-0700",,"FEMALE","RIGHT","2014-07-09T10:07:20-0700","Cue Angle",,"0","1310","1","923.4949946403503","DIFFERENT IMAGE"
"53c09d16b6145e316d1b9b19","GREEN-09994","2014-07-11T19:27:32-0700",,"FEMALE","RIGHT","2014-07-09T10:07:20-0700","Cue Angle",,"0","1000","1","795.1369881629944","90"
"53c09d16b6145e316d1b9b19","GREEN-09994","2014-07-11T19:27:32-0700",,"FEMALE","RIGHT","2014-07-09T10:07:20-0700","Cue Angle",,"0","990","1","932.9299926757812","90"
"53c09d16b6145e316d1b9b19","GREEN-09994","2014-07-11T19:27:32-0700",,"FEMALE","RIGHT","2014-07-09T10:07:20-0700","Cue Angle",,"0","980","1","712.0530009269714","90"
"53c09d16b6145e316d1b9b19","GREEN-09994","2014-07-11T19:27:32-0700",,"FEMALE","RIGHT","2014-07-09T10:07:20-0700","Cue Angle",,"0","960","0","722.7620482444763","92"
"53c09d16b6145e316d1b9b19","GREEN-09994","2014-07-11T19:27:32-0700",,"FEMALE","RIGHT","2014-07-09T10:07:20-0700","Cue Angle",,"0","1000","1","858.3730459213257","DIFFERENT IMAGE"
"53c09d16b6145e316d1b9b19","GREEN-09994","2014-07-11T19:27:32-0700",,"FEMALE","RIGHT","2014-07-09T10:07:20-0700","Cue Angle",,"1","990","1","N/A","94"
"53c09d16b6145e316d1b9b19","GREEN-09994","2014-07-11T19:27:32-0700",,"FEMALE","RIGHT","2014-07-09T10:07:20-0700","Cue Angle",,"1","1030","1","N/A","DIFFERENT IMAGE"
"53c09d16b6145e316d1b9b19","GREEN-09994","2014-07-11T19:27:32-0700",,"FEMALE","RIGHT","2014-07-09T10:07:20-0700","Cue Angle",,"0","1070","1","784.2010259628296","90"
"53c09d16b6145e316d1b9b19","GREEN-09994","2014-07-11T19:27:32-0700",,"FEMALE","RIGHT","2014-07-09T10:07:20-0700","Cue Angle",,"0","1060","1","863.906979560852","DIFFERENT IMAGE"
"53c09d16b6145e316d1b9b19","GREEN-09994","2014-07-11T19:27:32-0700",,"FEMALE","RIGHT","2014-07-09T10:07:20-0700","Cue Angle",,"0","1050","1","915.1909947395325","DIFFERENT IMAGE"
"53c09d16b6145e316d1b9b19","GREEN-09994","2014-07-11T19:27:32-0700",,"FEMALE","RIGHT","2014-07-09T10:07:20-0700","Cue Angle",,"0","1030","1","723.580002784729","DIFFERENT IMAGE"
"53c09d16b6145e316d1b9b19","GREEN-09994","2014-07-11T19:27:32-0700",,"FEMALE","RIGHT","2014-07-09T10:07:20-0700","Cue Angle",,"0","990","0","864.1790151596069","90"
"53c09d16b6145e316d1b9b19","GREEN-09994","2014-07-11T19:27:32-0700",,"FEMALE","RIGHT","2014-07-09T10:07:20-0700","Cue Angle",,"1","1030","0","N/A","96"
"53c09d16b6145e316d1b9b19","GREEN-09994","2014-07-11T19:27:32-0700",,"FEMALE","RIGHT","2014-07-09T10:07:20-0700","Cue Angle",,"0","1070","1","946.636974811554","90"
"53c09d16b6145e316d1b9b19","GREEN-09994","2014-07-11T19:27:32-0700",,"FEMALE","RIGHT","2014-07-09T10:07:20-0700","Cue Angle",,"0","1060","0","639.66304063797","98"
"53c09d16b6145e316d1b9b19","GREEN-09994","2014-07-11T19:27:32-0700",,"FEMALE","RIGHT","2014-07-09T10:07:20-0700","Cue Angle",,"0","1100","1","882.4179768562317","DIFFERENT IMAGE"
"53c09d16b6145e316d1b9b19","GREEN-09994","2014-07-11T19:27:32-0700",,"FEMALE","RIGHT","2014-07-09T10:07:20-0700","Cue Angle",,"0","1090","0","917.5670146942139","100"
"53c09d16b6145e316d1b9b19","GREEN-09994","2014-07-11T19:27:32-0700",,"FEMALE","RIGHT","2014-07-09T10:07:20-0700","Cue Angle",,"0","1130","0","1060.010015964508","102"
"53c09d16b6145e316d1b9b19","GREEN-09994","2014-07-11T19:27:32-0700",,"FEMALE","RIGHT","2014-07-09T10:07:20-0700","Cue Angle",,"0","1170","1","974.2559790611267","90"
"53c09d16b6145e316d1b9b19","GREEN-09994","2014-07-11T19:27:32-0700",,"FEMALE","RIGHT","2014-07-09T10:07:20-0700","Cue Angle",,"0","1160","1","899.7960090637207","DIFFERENT IMAGE"
"53c09d16b6145e316d1b9b19","GREEN-09994","2014-07-11T19:27:32-0700",,"FEMALE","RIGHT","2014-07-09T10:07:20-0700","Cue Angle",,"1","1150","1","N/A","90"
"53c09d16b6145e316d1b9b19","GREEN-09994","2014-07-11T19:27:32-0700",,"FEMALE","RIGHT","2014-07-09T10:07:20-0700","Cue Angle",,"0","1190","1","854.362964630127","90"
"53c09d16b6145e316d1b9b19","GREEN-09994","2014-07-11T19:27:32-0700",,"FEMALE","RIGHT","2014-07-09T10:07:20-0700","Cue Angle",,"0","1180","0","813.7419819831848","104"
"53c09d16b6145e316d1b9b19","GREEN-09994","2014-07-11T19:27:32-0700",,"FEMALE","RIGHT","2014-07-09T10:07:20-0700","Cue Angle",,"0","1220","1","943.5930252075195","90"
"53c09d16b6145e316d1b9b19","GREEN-09994","2014-07-11T19:27:32-0700",,"FEMALE","RIGHT","2014-07-09T10:07:20-0700","Cue Angle",,"0","1210","0","891.7490243911743","106"
"53c09d16b6145e316d1b9b19","GREEN-09994","2014-07-11T19:27:32-0700",,"FEMALE","RIGHT","2014-07-09T10:07:20-0700","Cue Angle",,"0","1250","1","829.7719955444336","90"
"53c09d16b6145e316d1b9b19","GREEN-09994","2014-07-11T19:27:32-0700",,"FEMALE","RIGHT","2014-07-09T10:07:20-0700","Cue Angle",,"0","1240","0","856.3469648361206","108"
"53c09d16b6145e316d1b9b19","GREEN-09994","2014-07-11T19:27:32-0700",,"FEMALE","RIGHT","2014-07-09T10:07:20-0700","Cue Angle",,"1","1280","1","N/A","110"
"53c09d16b6145e316d1b9b19","GREEN-09994","2014-07-11T19:27:32-0700",,"FEMALE","RIGHT","2014-07-09T10:07:20-0700","Cue Angle",,"0","1320","1","1193.4219598770142","DIFFERENT IMAGE"
"53c09d16b6145e316d1b9b19","GREEN-09994","2014-07-11T19:27:32-0700",,"FEMALE","RIGHT","2014-07-09T10:07:20-0700","Cue Angle",,"0","1310","1","923.4949946403503","DIFFERENT IMAGE"
"53c09dacb6145e356d1b9b18","GREEN-09994","2014-07-11T19:30:03-0700",,"FEMALE","RIGHT","2014-07-11T19:29:45-0700","Cue Angle",,"0","1000","0","894.1720128059387","90"
"53c09dacb6145e356d1b9b18","GREEN-09994","2014-07-11T19:30:03-0700",,"FEMALE","RIGHT","2014-07-11T19:29:45-0700","Cue Angle",,"0","1040","0","642.4170136451721","90"
"53c09dacb6145e356d1b9b18","GREEN-09994","2014-07-11T19:30:03-0700",,"FEMALE","RIGHT","2014-07-11T19:29:45-0700","Cue Angle",,"0","1080","1","968.7590003013611","92"
"53c0a410b6145e857b1b9b1a","ADMIN-UCSF-1111","2014-07-11T19:57:18-0700",,"FEMALE","RIGHT","2014-07-11T19:53:47-0700","Cue Angle",,"0","1000","1","825.0679969787598","92"
"53dffce1b6145e8e4a0923a0","GREEN-00022","2014-08-04T14:36:33-0700",,"FEMALE","RIGHT","2014-08-04T14:33:13-0700","Late Response",,"0","1000","0","825.0679969787598","ADAPTIVE ANGLE"
"53dffce1b6145e8e4a0923a0","GREEN-00022","2014-08-04T14:36:33-0700",,"FEMALE","RIGHT","2014-08-04T14:33:13-0700","Cue Type",,"0","1040","1","663.1050109863281","RANDOM IMAGE"
"53dffce1b6145e8e4a0923a0","GREEN-00022","2014-08-04T14:36:33-0700",,"FEMALE","RIGHT","2014-08-04T14:33:13-0700","Cue Angle",,"0","1030","1","809.9469542503357","90"
"53dffce1b6145e8e4a0923a0","GREEN-00022","2014-08-04T14:36:33-0700",,"FEMALE","RIGHT","2014-08-04T14:33:13-0700","Trial Accuracy",,"0","1020","1","542.2060489654541","90 DEGREES"
"53dffce1b6145e8e4a0923a0","GREEN-00022","2014-08-04T14:36:33-0700",,"FEMALE","RIGHT","2014-08-04T14:33:13-0700","Response Window",,"0","1000","1","813.7440085411072","RANDOM IMAGE"
"53dffce1b6145e8e4a0923a0","GREEN-00022","2014-08-04T14:36:33-0700",,"FEMALE","RIGHT","2014-08-04T14:33:13-0700","Response Time",,"0","1000","1","694.2740082740784","RANDOM IMAGE"
"53dffce1b6145e8e4a0923a0","GREEN-00022","2014-08-04T14:36:33-0700",,"FEMALE","RIGHT","2014-08-04T14:33:13-0700","Late Response",,"0","960","1","694.2740082740784","90 DEGREES"
"53dffce1b6145e8e4a0923a0","GREEN-00022","2014-08-04T14:36:33-0700",,"FEMALE","RIGHT","2014-08-04T14:33:13-0700","Cue Type",,"0","880","1","565.5360221862793","RANDOM IMAGE"
"53dffce1b6145e8e4a0923a0","GREEN-00022","2014-08-04T14:36:33-0700",,"FEMALE","RIGHT","2014-08-04T14:33:13-0700","Cue Angle",,"0","720","1","660.6599688529968","90"
"53dffce1b6145e8e4a0923a0","GREEN-00022","2014-08-04T14:36:33-0700",,"FEMALE","RIGHT","2014-08-04T14:33:13-0700","Trial Accuracy",,"0","400","1","509.0499520301819","90 DEGREES"
"53dffce1b6145e8e4a0923a0","GREEN-00022","2014-08-04T14:36:33-0700",,"FEMALE","RIGHT","2014-08-04T14:33:13-0700","Response Window",,"1","440","1","N/A","RANDOM IMAGE"
"53dffce1b6145e8e4a0923a0","GREEN-00022","2014-08-04T14:36:33-0700",,"FEMALE","RIGHT","2014-08-04T14:33:13-0700","Response Time",,"1","440","1","N/A","90 DEGREES"
"53dffce1b6145e8e4a0923a0","GREEN-00022","2014-08-04T14:36:33-0700",,"FEMALE","RIGHT","2014-08-04T14:33:13-0700","Late Response",,"1","480","0","N/A","ADAPTIVE ANGLE"
"53dffce1b6145e8e4a0923a0","GREEN-00022","2014-08-04T14:36:33-0700",,"FEMALE","RIGHT","2014-08-04T14:33:13-0700","Cue Type",,"1","560","1","N/A","RANDOM IMAGE"
"53dffce1b6145e8e4a0923a0","GREEN-00022","2014-08-04T14:36:33-0700",,"FEMALE","RIGHT","2014-08-04T14:33:13-0700","Cue Angle",,"1","720","0","N/A","96"
"53dffce1b6145e8e4a0923a0","GREEN-00022","2014-08-04T14:36:33-0700",,"FEMALE","RIGHT","2014-08-04T14:33:13-0700","Trial Accuracy",,"0","1040","0","650.3040194511414","ADAPTIVE ANGLE"
"53dffce1b6145e8e4a0923a0","GREEN-00022","2014-08-04T14:36:33-0700",,"FEMALE","RIGHT","2014-08-04T14:33:13-0700","Response Window",,"0","1680","0","808.8290095329285","ADAPTIVE ANGLE"
"53dffce1b6145e8e4a0923a0","GREEN-00022","2014-08-04T14:36:33-0700",,"FEMALE","RIGHT","2014-08-04T14:33:13-0700","Response Time",,"0","1680","1","584.5369696617126","90 DEGREES"
"53dffce1b6145e8e4a0923a0","GREEN-00022","2014-08-04T14:36:33-0700",,"FEMALE","RIGHT","2014-08-04T14:33:13-0700","Late Response",,"0","1670","1","584.5369696617126","90 DEGREES"
"53dffce1b6145e8e4a0923a0","GREEN-00022","2014-08-04T14:36:33-0700",,"FEMALE","RIGHT","2014-08-04T14:33:13-0700","Cue Type",,"0","1660","0","458.29999446868896","ADAPTIVE ANGLE"
"53dffce1b6145e8e4a0923a0","GREEN-00022","2014-08-04T14:36:33-0700",,"FEMALE","RIGHT","2014-08-04T14:33:13-0700","Cue Angle",,"0","1700","0","527.7569890022278","102"
"53dffce1b6145e8e4a0923a0","GREEN-00022","2014-08-04T14:36:33-0700",,"FEMALE","RIGHT","2014-08-04T14:33:13-0700","Trial Accuracy",,"0","1740","0","559.1620206832886","ADAPTIVE ANGLE"
"53dffce1b6145e8e4a0923a0","GREEN-00022","2014-08-04T14:36:33-0700",,"FEMALE","RIGHT","2014-08-04T14:33:13-0700","Response Window",,"0","1820","0","511.91598176956177","ADAPTIVE ANGLE"
"53dffce1b6145e8e4a0923a0","GREEN-00022","2014-08-04T14:36:33-0700",,"FEMALE","RIGHT","2014-08-04T14:33:13-0700","Response Time",,"0","1820","0","432.483971118927","ADAPTIVE ANGLE"
"53dffce1b6145e8e4a0923a0","GREEN-00022","2014-08-04T14:36:33-0700",,"FEMALE","RIGHT","2014-08-04T14:33:13-0700","Late Response",,"0","1980","1","432.483971118927","RANDOM IMAGE"
"53dffce1b6145e8e4a0923a0","GREEN-00022","2014-08-04T14:36:33-0700",,"FEMALE","RIGHT","2014-08-04T14:33:13-0700","Cue Type",,"0","1970","1","725.3490090370178","RANDOM IMAGE"
"53dffce1b6145e8e4a0923a0","GREEN-00022","2014-08-04T14:36:33-0700",,"FEMALE","RIGHT","2014-08-04T14:33:13-0700","Cue Angle",,"0","1960","1","732.2909832000732","90"
"53dffce1b6145e8e4a0923a0","GREEN-00022","2014-08-04T14:36:33-0700",,"FEMALE","RIGHT","2014-08-04T14:33:13-0700","Trial Accuracy",,"0","1940","1","581.5120339393616","90 DEGREES"
"53dffce1b6145e8e4a0923a0","GREEN-00022","2014-08-04T14:36:33-0700",,"FEMALE","RIGHT","2014-08-04T14:33:13-0700","Response Window",,"0","1900","1","740.556001663208","90 DEGREES"
"53dffce1b6145e8e4a0923a0","GREEN-00022","2014-08-04T14:36:33-0700",,"FEMALE","RIGHT","2014-08-04T14:33:13-0700","Response Time",,"0","1900","1","794.9010133743286","90 DEGREES"
"53e3f36eb6145ee5280923a0","BLUE-00051","2014-08-07T17:45:14-0400",,"FEMALE","LEFT","2014-08-07T17:41:34-0400","Late Response",,"1","1000","0","794.9010133743286","RANDOM IMAGE"
"53e3f36eb6145ee5280923a0","BLUE-00051","2014-08-07T17:45:14-0400",,"FEMALE","LEFT","2014-08-07T17:41:34-0400","Cue Type",,"1","1040","1","N/A","90 DEGREES"
"53e3f36eb6145ee5280923a0","BLUE-00051","2014-08-07T17:45:14-0400",,"FEMALE","LEFT","2014-08-07T17:41:34-0400","Cue Angle",,"0","1030","1","957.1689963340759","90"
"53e3f36eb6145ee5280923a0","BLUE-00051","2014-08-07T17:45:14-0400",,"FEMALE","LEFT","2014-08-07T17:41:34-0400","Trial Accuracy",,"0","1020","1","742.7189946174622","90 DEGREES"
"53e3f36eb6145ee5280923a0","BLUE-00051","2014-08-07T17:45:14-0400",,"FEMALE","LEFT","2014-08-07T17:41:34-0400","Response Window",,"0","1000","1","944.6540474891663","90 DEGREES"
"53e3f36eb6145ee5280923a0","BLUE-00051","2014-08-07T17:45:14-0400",,"FEMALE","LEFT","2014-08-07T17:41:34-0400","Response Time",,"0","1000","1","838.8190269470215","RANDOM IMAGE"
"53e3f36eb6145ee5280923a0","BLUE-00051","2014-08-07T17:45:14-0400",,"FEMALE","LEFT","2014-08-07T17:41:34-0400","Late Response",,"0","960","0","838.8190269470215","ADAPTIVE ANGLE"
"53e3f36eb6145ee5280923a0","BLUE-00051","2014-08-07T17:45:14-0400",,"FEMALE","LEFT","2014-08-07T17:41:34-0400","Cue Type",,"0","1000","1","906.9229960441589","90 DEGREES"
"53e3f36eb6145ee5280923a0","BLUE-00051","2014-08-07T17:45:14-0400",,"FEMALE","LEFT","2014-08-07T17:41:34-0400","Cue Angle",,"0","990","1","878.8920044898987","DIFFERENT IMAGE"
"53e3f36eb6145ee5280923a0","BLUE-00051","2014-08-07T17:45:14-0400",,"FEMALE","LEFT","2014-08-07T17:41:34-0400","Trial Accuracy",,"0","980","0","895.9559798240662","RANDOM IMAGE"
"53e3f36eb6145ee5280923a0","BLUE-00051","2014-08-07T17:45:14-0400",,"FEMALE","LEFT","2014-08-07T17:41:34-0400","Response Window",,"1","1020","0","N/A","ADAPTIVE ANGLE"
"53e3f36eb6145ee5280923a0","BLUE-00051","2014-08-07T17:45:14-0400",,"FEMALE","LEFT","2014-08-07T17:41:34-0400","Response Time",,"0","1020","0","789.745032787323","ADAPTIVE ANGLE"
"53e3f36eb6145ee5280923a0","BLUE-00051","2014-08-07T17:45:14-0400",,"FEMALE","LEFT","2014-08-07T17:41:34-0400","Late Response",,"0","1060","1","789.745032787323","RANDOM IMAGE"
"53e3f36eb6145ee5280923a0","BLUE-00051","2014-08-07T17:45:14-0400",,"FEMALE","LEFT","2014-08-07T17:41:34-0400","Cue Type",,"0","1050","0","863.6150360107422","ADAPTIVE ANGLE"
"53e3f36eb6145ee5280923a0","BLUE-00051","2014-08-07T17:45:14-0400",,"FEMALE","LEFT","2014-08-07T17:41:34-0400","Cue Angle",,"0","1090","1","814.2659664154053","DIFFERENT IMAGE"
"53e3f36eb6145ee5280923a0","BLUE-00051","2014-08-07T17:45:14-0400",,"FEMALE","LEFT","2014-08-07T17:41:34-0400","Trial Accuracy",,"0","1080","1","963.2720351219177","RANDOM IMAGE"
"53e3f36eb6145ee5280923a0","BLUE-00051","2014-08-07T17:45:14-0400",,"FEMALE","LEFT","2014-08-07T17:41:34-0400","Response Window",,"0","1070","1","929.4600486755371","90 DEGREES"
"53e3f36eb6145ee5280923a0","BLUE-00051","2014-08-07T17:45:14-0400",,"FEMALE","LEFT","2014-08-07T17:41:34-0400","Response Time",,"0","1070","1","707.8379988670349","90 DEGREES"
"53e3f36eb6145ee5280923a0","BLUE-00051","2014-08-07T17:45:14-0400",,"FEMALE","LEFT","2014-08-07T17:41:34-0400","Late Response",,"1","1050","1","707.8379988670349","90 DEGREES"
"53e3f36eb6145ee5280923a0","BLUE-00051","2014-08-07T17:45:14-0400",,"FEMALE","LEFT","2014-08-07T17:41:34-0400","Cue Type",,"1","1090","1","N/A","RANDOM IMAGE"
"53e3f36eb6145ee5280923a0","BLUE-00051","2014-08-07T17:45:14-0400",,"FEMALE","LEFT","2014-08-07T17:41:34-0400","Cue Angle",,"0","1080","0","876.7110109329224","100"
"53e3f36eb6145ee5280923a0","BLUE-00051","2014-08-07T17:45:14-0400",,"FEMALE","LEFT","2014-08-07T17:41:34-0400","Trial Accuracy",,"0","1120","1","873.1930255889893","ADAPTIVE ANGLE"
"53e3f36eb6145ee5280923a0","BLUE-00051","2014-08-07T17:45:14-0400",,"FEMALE","LEFT","2014-08-07T17:41:34-0400","Response Window",,"1","1160","1","N/A","ADAPTIVE ANGLE"
"53e3f36eb6145ee5280923a0","BLUE-00051","2014-08-07T17:45:14-0400",,"FEMALE","LEFT","2014-08-07T17:41:34-0400","Response Time",,"0","1160","0","1025.922954082489","RANDOM IMAGE"
"53e3f36eb6145ee5280923a0","BLUE-00051","2014-08-07T17:45:14-0400",,"FEMALE","LEFT","2014-08-07T17:41:34-0400","Late Response",,"0","1240","1","1025.922954082489","RANDOM IMAGE"
"53e3f36eb6145ee5280923a0","BLUE-00051","2014-08-07T17:45:14-0400",,"FEMALE","LEFT","2014-08-07T17:41:34-0400","Cue Type",,"0","1230","1","921.887993812561","90 DEGREES"
"53e3f36eb6145ee5280923a0","BLUE-00051","2014-08-07T17:45:14-0400",,"FEMALE","LEFT","2014-08-07T17:41:34-0400","Cue Angle",,"0","1220","0","919.7050333023071","104"
"53e3f36eb6145ee5280923a0","BLUE-00051","2014-08-07T17:45:14-0400",,"FEMALE","LEFT","2014-08-07T17:41:34-0400","Trial Accuracy",,"0","1260","1","905.6610465049744","ADAPTIVE ANGLE"
"53e3f36eb6145ee5280923a0","BLUE-00051","2014-08-07T17:45:14-0400",,"FEMALE","LEFT","2014-08-07T17:41:34-0400","Response Window",,"0","1250","1","889.8230195045471","90 DEGREES"
"53e3f36eb6145ee5280923a0","BLUE-00051","2014-08-07T17:45:14-0400",,"FEMALE","LEFT","2014-08-07T17:41:34-0400","Response Time",,"0","1250","0","1122.1840381622314","ADAPTIVE ANGLE"
"53eaf08bb6145ef617ef3afb","GREEN-00032","2014-08-12T21:58:50-0700",,"FEMALE","LEFT","2014-08-12T21:55:11-0700","Response Time",,"0","1000","1","876.1990070343018","RANDOM IMAGE"
"53eaf08bb6145ef617ef3afb","GREEN-00032","2014-08-12T21:58:50-0700",,"FEMALE","LEFT","2014-08-12T21:55:11-0700","Trial Accuracy",,"0","990","1","876.1990070343018","90 DEGREES"
"53eaf08bb6145ef617ef3afb","GREEN-00032","2014-08-12T21:58:50-0700",,"FEMALE","LEFT","2014-08-12T21:55:11-0700","Response Window",,"1","980","1","938.7100338935852","RANDOM IMAGE"
"53eaf08bb6145ef617ef3afb","GREEN-00032","2014-08-12T21:58:50-0700",,"FEMALE","LEFT","2014-08-12T21:55:11-0700","Late Response",,"1","980","1","N/A","ADAPTIVE ANGLE"
"53eaf08bb6145ef617ef3afb","GREEN-00032","2014-08-12T21:58:50-0700",,"FEMALE","LEFT","2014-08-12T21:55:11-0700","Cue Type",,"1","1020","0","N/A","90 DEGREES"
"53eaf08bb6145ef617ef3afb","GREEN-00032","2014-08-12T21:58:50-0700",,"FEMALE","LEFT","2014-08-12T21:55:11-0700","Cue Angle",,"0","1060","1","949.629008769989","90"
"53eaf08bb6145ef617ef3afb","GREEN-00032","2014-08-12T21:58:50-0700",,"FEMALE","LEFT","2014-08-12T21:55:11-0700","Trial Accuracy",,"1","1050","1","N/A","RANDOM IMAGE"
"53eaf08bb6145ef617ef3afb","GREEN-00032","2014-08-12T21:58:50-0700",,"FEMALE","LEFT","2014-08-12T21:55:11-0700","Trial Accuracy",,"0","1090","0","N/A","ADAPTIVE ANGLE"
"53eaf08bb6145ef617ef3afb","GREEN-00032","2014-08-12T21:58:50-0700",,"FEMALE","LEFT","2014-08-12T21:55:11-0700","Response Window",,"0","1130","0","1018.9409852027893","90 DEGREES"
"53eaf08bb6145ef617ef3afb","GREEN-00032","2014-08-12T21:58:50-0700",,"FEMALE","LEFT","2014-08-12T21:55:11-0700","Late Response",,"0","1130","1","824.7649669647217","ADAPTIVE ANGLE"
"53eaf08bb6145ef617ef3afb","GREEN-00032","2014-08-12T21:58:50-0700",,"FEMALE","LEFT","2014-08-12T21:55:11-0700","Cue Type",,"0","1120","0","881.011962890625","ADAPTIVE ANGLE"
"53eaf08bb6145ef617ef3afb","GREEN-00032","2014-08-12T21:58:50-0700",,"FEMALE","LEFT","2014-08-12T21:55:11-0700","Cue Angle",,"0","1160","0","845.4070091247559","98"
"53eaf08bb6145ef617ef3afb","GREEN-00032","2014-08-12T21:58:50-0700",,"FEMALE","LEFT","2014-08-12T21:55:11-0700","Response Time",,"0","1200","1","867.6139712333679","90 DEGREES"
"53eaf08bb6145ef617ef3afb","GREEN-00032","2014-08-12T21:58:50-0700",,"FEMALE","LEFT","2014-08-12T21:55:11-0700","Response Time",,"1","1190","1","N/A","ADAPTIVE ANGLE"
"53eaf08bb6145ef617ef3afb","GREEN-00032","2014-08-12T21:58:50-0700",,"FEMALE","LEFT","2014-08-12T21:55:11-0700","Response Window",,"0","1230","0","N/A","RANDOM IMAGE"
"53eaf08bb6145ef617ef3afb","GREEN-00032","2014-08-12T21:58:50-0700",,"FEMALE","LEFT","2014-08-12T21:55:11-0700","Late Response",,"0","1230","1","1123.98099899292","90 DEGREES"
"53eaf08bb6145ef617ef3afb","GREEN-00032","2014-08-12T21:58:50-0700",,"FEMALE","LEFT","2014-08-12T21:55:11-0700","Cue Type",,"0","1220","1","1193.1249499320984","90 DEGREES"
"53eaf08bb6145ef617ef3afb","GREEN-00032","2014-08-12T21:58:50-0700",,"FEMALE","LEFT","2014-08-12T21:55:11-0700","Cue Angle",,"0","1210","0","1094.3359732627869","90"
"53eaf08bb6145ef617ef3afb","GREEN-00032","2014-08-12T21:58:50-0700",,"FEMALE","LEFT","2014-08-12T21:55:11-0700","Response Time",,"0","1250","1","1067.2190189361572","ADAPTIVE ANGLE"
"53eaf08bb6145ef617ef3afb","GREEN-00032","2014-08-12T21:58:50-0700",,"FEMALE","LEFT","2014-08-12T21:55:11-0700","Trial Accuracy",,"0","1240","0","1067.2190189361572","ADAPTIVE ANGLE"
"53eaf08bb6145ef617ef3afb","GREEN-00032","2014-08-12T21:58:50-0700",,"FEMALE","LEFT","2014-08-12T21:55:11-0700","Response Window",,"0","1280","0","871.1720108985901","RANDOM IMAGE"
"53eaf08bb6145ef617ef3afb","GREEN-00032","2014-08-12T21:58:50-0700",,"FEMALE","LEFT","2014-08-12T21:55:11-0700","Late Response",,"0","1280","1","937.0740056037903","RANDOM IMAGE"
"53eaf08bb6145ef617ef3afb","GREEN-00032","2014-08-12T21:58:50-0700",,"FEMALE","LEFT","2014-08-12T21:55:11-0700","Cue Type",,"0","1270","1","1040.2050018310547","RANDOM IMAGE"
"53eaf08bb6145ef617ef3afb","GREEN-00032","2014-08-12T21:58:50-0700",,"FEMALE","LEFT","2014-08-12T21:55:11-0700","Cue Angle",,"1","1260","1","N/A","DIFFERENT IMAGE"
"53eaf08bb6145ef617ef3afb","GREEN-00032","2014-08-12T21:58:50-0700",,"FEMALE","LEFT","2014-08-12T21:55:11-0700","Response Time",,"0","1300","1","894.3440318107605","90 DEGREES"
"53eaf08bb6145ef617ef3afb","GREEN-00032","2014-08-12T21:58:50-0700",,"FEMALE","LEFT","2014-08-12T21:55:11-0700","Trial Accuracy",,"0","1290","0","894.3440318107605","90 DEGREES"
"53eaf08bb6145ef617ef3afb","GREEN-00032","2014-08-12T21:58:50-0700",,"FEMALE","LEFT","2014-08-12T21:55:11-0700","Response Window",,"0","1330","0","1059.2600107192993","90 DEGREES"
"53eaf08bb6145ef617ef3afb","GREEN-00032","2014-08-12T21:58:50-0700",,"FEMALE","LEFT","2014-08-12T21:55:11-0700","Late Response",,"0","1330","1","1224.0740060806274","ADAPTIVE ANGLE"
"53eaf08bb6145ef617ef3afb","GREEN-00032","2014-08-12T21:58:50-0700",,"FEMALE","LEFT","2014-08-12T21:55:11-0700","Cue Type",,"0","1320","0","1019.9040174484253","RANDOM IMAGE"
"53eaf08bb6145ef617ef3afb","GREEN-00032","2014-08-12T21:58:50-0700",,"FEMALE","LEFT","2014-08-12T21:55:11-0700","Cue Angle",,"0","1360","1","1002.4920105934143","DIFFERENT IMAGE"
"53ed8fdfb6145e980def3afb","BLUE-00056","2014-08-14T21:43:09-0700",,"FEMALE","RIGHT","2014-08-14T21:39:44-0700","Late Response",,"1","1000","0","1002.4920105934143","90 DEGREES"
"53ed8fdfb6145e980def3afb","BLUE-00056","2014-08-14T21:43:09-0700",,"FEMALE","RIGHT","2014-08-14T21:39:44-0700","Cue Type",,"1","1040","0","N/A","90 DEGREES"
"53ed8fdfb6145e980def3afb","BLUE-00056","2014-08-14T21:43:09-0700",,"FEMALE","RIGHT","2014-08-14T21:39:44-0700","Cue Angle",,"1","1080","1","N/A","90"
"53ed8fdfb6145e980def3afb","BLUE-00056","2014-08-14T21:43:09-0700",,"FEMALE","RIGHT","2014-08-14T21:39:44-0700","Trial Accuracy",,"0","1070","0","662.6220345497131","90 DEGREES"
"53ed8fdfb6145e980def3afb","BLUE-00056","2014-08-14T21:43:09-0700",,"FEMALE","RIGHT","2014-08-14T21:39:44-0700","Response Window",,"0","1110","0","829.0910124778748","ADAPTIVE ANGLE"
"53ed8fdfb6145e980def3afb","BLUE-00056","2014-08-14T21:43:09-0700",,"FEMALE","RIGHT","2014-08-14T21:39:44-0700","Response Time",,"1","1110","1","N/A","ADAPTIVE ANGLE"
"53ed8fdfb6145e980def3afb","BLUE-00056","2014-08-14T21:43:09-0700",,"FEMALE","RIGHT","2014-08-14T21:39:44-0700","Late Response",,"0","1150","1","N/A","90 DEGREES"
"53ed8fdfb6145e980def3afb","BLUE-00056","2014-08-14T21:43:09-0700",,"FEMALE","RIGHT","2014-08-14T21:39:44-0700","Cue Type",,"0","1140","1","817.6510334014893","RANDOM IMAGE"
"53ed8fdfb6145e980def3afb","BLUE-00056","2014-08-14T21:43:09-0700",,"FEMALE","RIGHT","2014-08-14T21:39:44-0700","Cue Angle",,"0","1130","1","1101.5210151672363","90"
"53ed8fdfb6145e980def3afb","BLUE-00056","2014-08-14T21:43:09-0700",,"FEMALE","RIGHT","2014-08-14T21:39:44-0700","Trial Accuracy",,"0","1110","1","847.5180268287659","90 DEGREES"
"53ed8fdfb6145e980def3afb","BLUE-00056","2014-08-14T21:43:09-0700",,"FEMALE","RIGHT","2014-08-14T21:39:44-0700","Response Window",,"0","1070","1","976.8040180206299","RANDOM IMAGE"
"53ed8fdfb6145e980def3afb","BLUE-00056","2014-08-14T21:43:09-0700",,"FEMALE","RIGHT","2014-08-14T21:39:44-0700","Response Time",,"0","1070","0","867.9689764976501","ADAPTIVE ANGLE"
"53ed8fdfb6145e980def3afb","BLUE-00056","2014-08-14T21:43:09-0700",,"FEMALE","RIGHT","2014-08-14T21:39:44-0700","Late Response",,"1","1110","0","867.9689764976501","ADAPTIVE ANGLE"
"53ed8fdfb6145e980def3afb","BLUE-00056","2014-08-14T21:43:09-0700",,"FEMALE","RIGHT","2014-08-14T21:39:44-0700","Cue Type",,"1","1150","0","N/A","RANDOM IMAGE"
"53ed8fdfb6145e980def3afb","BLUE-00056","2014-08-14T21:43:09-0700",,"FEMALE","RIGHT","2014-08-14T21:39:44-0700","Cue Angle",,"0","1230","1","861.3420128822327","90"
"53ed8fdfb6145e980def3afb","BLUE-00056","2014-08-14T21:43:09-0700",,"FEMALE","RIGHT","2014-08-14T21:39:44-0700","Trial Accuracy",,"0","1220","1","896.9079852104187","90 DEGREES"
"53ed8fdfb6145e980def3afb","BLUE-00056","2014-08-14T21:43:09-0700",,"FEMALE","RIGHT","2014-08-14T21:39:44-0700","Response Window",,"0","1210","1","1179.1580319404602","RANDOM IMAGE"
"53ed8fdfb6145e980def3afb","BLUE-00056","2014-08-14T21:43:09-0700",,"FEMALE","RIGHT","2014-08-14T21:39:44-0700","Response Time",,"0","1210","1","1065.16695022583","RANDOM IMAGE"
"53ed8fdfb6145e980def3afb","BLUE-00056","2014-08-14T21:43:09-0700",,"FEMALE","RIGHT","2014-08-14T21:39:44-0700","Late Response",,"1","1190","0","1065.16695022583","ADAPTIVE ANGLE"
"53ed8fdfb6145e980def3afb","BLUE-00056","2014-08-14T21:43:09-0700",,"FEMALE","RIGHT","2014-08-14T21:39:44-0700","Cue Type",,"1","1230","1","N/A","RANDOM IMAGE"
"53ed8fdfb6145e980def3afb","BLUE-00056","2014-08-14T21:43:09-0700",,"FEMALE","RIGHT","2014-08-14T21:39:44-0700","Cue Angle",,"0","1220","1","1127.215027809143","DIFFERENT IMAGE"
"53ed8fdfb6145e980def3afb","BLUE-00056","2014-08-14T21:43:09-0700",,"FEMALE","RIGHT","2014-08-14T21:39:44-0700","Trial Accuracy",,"0","1210","1","1126.2499690055847","RANDOM IMAGE"
"53ed8fdfb6145e980def3afb","BLUE-00056","2014-08-14T21:43:09-0700",,"FEMALE","RIGHT","2014-08-14T21:39:44-0700","Response Window",,"0","1190","1","1092.516005039215","90 DEGREES"
"53ed8fdfb6145e980def3afb","BLUE-00056","2014-08-14T21:43:09-0700",,"FEMALE","RIGHT","2014-08-14T21:39:44-0700","Response Time",,"0","1190","0","1049.1079688072205","ADAPTIVE ANGLE"
"53ed8fdfb6145e980def3afb","BLUE-00056","2014-08-14T21:43:09-0700",,"FEMALE","RIGHT","2014-08-14T21:39:44-0700","Late Response",,"0","1230","1","1049.1079688072205","RANDOM IMAGE"
"53ed8fdfb6145e980def3afb","BLUE-00056","2014-08-14T21:43:09-0700",,"FEMALE","RIGHT","2014-08-14T21:39:44-0700","Cue Type",,"0","1220","1","1057.166039943695","90 DEGREES"
"53ed8fdfb6145e980def3afb","BLUE-00056","2014-08-14T21:43:09-0700",,"FEMALE","RIGHT","2014-08-14T21:39:44-0700","Cue Angle",,"0","1210","1","890.529990196228","90"
"53ed8fdfb6145e980def3afb","BLUE-00056","2014-08-14T21:43:09-0700",,"FEMALE","RIGHT","2014-08-14T21:39:44-0700","Trial Accuracy",,"0","1190","0","982.3510050773621","90 DEGREES"
"53ed8fdfb6145e980def3afb","BLUE-00056","2014-08-14T21:43:09-0700",,"FEMALE","RIGHT","2014-08-14T21:39:44-0700","Response Window",,"0","1230","0","923.5780239105225","ADAPTIVE ANGLE"
"53ed8fdfb6145e980def3afb","BLUE-00056","2014-08-14T21:43:09-0700",,"FEMALE","RIGHT","2014-08-14T21:39:44-0700","Response Time",,"0","1230","0","850.4469990730286","ADAPTIVE ANGLE"
"53edb1b3b6145ee012ef3af9","GREEN-00029","2014-08-15T00:07:32-0700",,"FEMALE","RIGHT","2014-08-15T00:04:19-0700","Late Response",,"0","1000","1","850.4469990730286","RANDOM IMAGE"
"53edb1b3b6145ee012ef3af9","GREEN-00029","2014-08-15T00:07:32-0700",,"FEMALE","RIGHT","2014-08-15T00:04:19-0700","Cue Type",,"0","990","1","631.8510174751282","90 DEGREES"
"53edb1b3b6145ee012ef3af9","GREEN-00029","2014-08-15T00:07:32-0700",,"FEMALE","RIGHT","2014-08-15T00:04:19-0700","Cue Angle",,"0","980","0","919.6339845657349","92"
"53edb1b3b6145ee012ef3af9","GREEN-00029","2014-08-15T00:07:32-0700",,"FEMALE","RIGHT","2014-08-15T00:04:19-0700","Trial Accuracy",,"0","1020","1","668.4430241584778","ADAPTIVE ANGLE"
"53edb1b3b6145ee012ef3af9","GREEN-00029","2014-08-15T00:07:32-0700",,"FEMALE","RIGHT","2014-08-15T00:04:19-0700","Response Window",,"0","1010","1","714.4590020179749","90 DEGREES"
"53edb1b3b6145ee012ef3af9","GREEN-00029","2014-08-15T00:07:32-0700",,"FEMALE","RIGHT","2014-08-15T00:04:19-0700","Response Time",,"0","1010","0","826.3649940490723","ADAPTIVE ANGLE"
"53edb1b3b6145ee012ef3af9","GREEN-00029","2014-08-15T00:07:32-0700",,"FEMALE","RIGHT","2014-08-15T00:04:19-0700","Late Response",,"0","1050","1","826.3649940490723","90 DEGREES"
"53edb1b3b6145ee012ef3af9","GREEN-00029","2014-08-15T00:07:32-0700",,"FEMALE","RIGHT","2014-08-15T00:04:19-0700","Cue Type",,"0","1040","0","730.3259968757629","ADAPTIVE ANGLE"
"53edb1b3b6145ee012ef3af9","GREEN-00029","2014-08-15T00:07:32-0700",,"FEMALE","RIGHT","2014-08-15T00:04:19-0700","Cue Angle",,"0","1080","1","935.3899955749512","DIFFERENT IMAGE"
"53edb1b3b6145ee012ef3af9","GREEN-00029","2014-08-15T00:07:32-0700",,"FEMALE","RIGHT","2014-08-15T00:04:19-0700","Trial Accuracy",,"0","1070","0","793.3809757232666","RANDOM IMAGE"
"53edb1b3b6145ee012ef3af9","GREEN-00029","2014-08-15T00:07:32-0700",,"FEMALE","RIGHT","2014-08-15T00:04:19-0700","Response Window",,"0","1110","0","631.5430402755737","ADAPTIVE ANGLE"
"53edb1b3b6145ee012ef3af9","GREEN-00029","2014-08-15T00:07:32-0700",,"FEMALE","RIGHT","2014-08-15T00:04:19-0700","Response Time",,"0","1110","0","691.6369795799255","ADAPTIVE ANGLE"
"53edb1b3b6145ee012ef3af9","GREEN-00029","2014-08-15T00:07:32-0700",,"FEMALE","RIGHT","2014-08-15T00:04:19-0700","Late Response",,"0","1150","1","691.6369795799255","90 DEGREES"
"53edb1b3b6145ee012ef3af9","GREEN-00029","2014-08-15T00:07:32-0700",,"FEMALE","RIGHT","2014-08-15T00:04:19-0700","Cue Type",,"0","1140","1","653.4090042114258","RANDOM IMAGE"
"53edb1b3b6145ee012ef3af9","GREEN-00029","2014-08-15T00:07:32-0700",,"FEMALE","RIGHT","2014-08-15T00:04:19-0700","Cue Angle",,"0","1130","1","815.5750036239624","90"
"53edb1b3b6145ee012ef3af9","GREEN-00029","2014-08-15T00:07:32-0700",,"FEMALE","RIGHT","2014-08-15T00:04:19-0700","Trial Accuracy",,"0","1110","1","769.7409987449646","90 DEGREES"
"53edb1b3b6145ee012ef3af9","GREEN-00029","2014-08-15T00:07:32-0700",,"FEMALE","RIGHT","2014-08-15T00:04:19-0700","Response Window",,"1","1150","1","N/A","90 DEGREES"
"53edb1b3b6145ee012ef3af9","GREEN-00029","2014-08-15T00:07:32-0700",,"FEMALE","RIGHT","2014-08-15T00:04:19-0700","Response Time",,"0","1150","1","744.6359992027283","RANDOM IMAGE"
"53edb1b3b6145ee012ef3af9","GREEN-00029","2014-08-15T00:07:32-0700",,"FEMALE","RIGHT","2014-08-15T00:04:19-0700","Late Response",,"0","1140","1","744.6359992027283","RANDOM IMAGE"
"53edb1b3b6145ee012ef3af9","GREEN-00029","2014-08-15T00:07:32-0700",,"FEMALE","RIGHT","2014-08-15T00:04:19-0700","Cue Type",,"0","1130","1","712.6370072364807","90 DEGREES"
"53edb1b3b6145ee012ef3af9","GREEN-00029","2014-08-15T00:07:32-0700",,"FEMALE","RIGHT","2014-08-15T00:04:19-0700","Cue Angle",,"0","1110","1","733.642041683197","90"
"53edb1b3b6145ee012ef3af9","GREEN-00029","2014-08-15T00:07:32-0700",,"FEMALE","RIGHT","2014-08-15T00:04:19-0700","Trial Accuracy",,"0","1070","0","762.9010081291199","90 DEGREES"
"53edb1b3b6145ee012ef3af9","GREEN-00029","2014-08-15T00:07:32-0700",,"FEMALE","RIGHT","2014-08-15T00:04:19-0700","Response Window",,"0","1110","0","567.5210356712341","ADAPTIVE ANGLE"
"53edb1b3b6145ee012ef3af9","GREEN-00029","2014-08-15T00:07:32-0700",,"FEMALE","RIGHT","2014-08-15T00:04:19-0700","Response Time",,"0","1110","1","758.7389945983887","RANDOM IMAGE"
"53edb1b3b6145ee012ef3af9","GREEN-00029","2014-08-15T00:07:32-0700",,"FEMALE","RIGHT","2014-08-15T00:04:19-0700","Late Response",,"0","1100","0","758.7389945983887","ADAPTIVE ANGLE"
"53edb1b3b6145ee012ef3af9","GREEN-00029","2014-08-15T00:07:32-0700",,"FEMALE","RIGHT","2014-08-15T00:04:19-0700","Cue Type",,"0","1140","1","608.7509989738464","RANDOM IMAGE"
"53edb1b3b6145ee012ef3af9","GREEN-00029","2014-08-15T00:07:32-0700",,"FEMALE","RIGHT","2014-08-15T00:04:19-0700","Cue Angle",,"0","1130","1","729.0819883346558","106"
"53edb1b3b6145ee012ef3af9","GREEN-00029","2014-08-15T00:07:32-0700",,"FEMALE","RIGHT","2014-08-15T00:04:19-0700","Trial Accuracy",,"1","1170","1","N/A","ADAPTIVE ANGLE"
"53edb1b3b6145ee012ef3af9","GREEN-00029","2014-08-15T00:07:32-0700",,"FEMALE","RIGHT","2014-08-15T00:04:19-0700","Response Window",,"0","1160","1","743.0239915847778","RANDOM IMAGE"
"53edb1b3b6145ee012ef3af9","GREEN-00029","2014-08-15T00:07:32-0700",,"FEMALE","RIGHT","2014-08-15T00:04:19-0700","Response Time",,"0","1160","0","910.5929732322693","90 DEGREES"
"53ef8d59b6145eca0def3b07","BLUE-00064","2014-08-16T09:56:55-0700",,"FEMALE","RIGHT","2014-08-16T09:53:35-0700","Trial Accuracy",,"1","1000","1","N/A","RANDOM IMAGE"
"53ef8d59b6145eca0def3b07","BLUE-00064","2014-08-16T09:56:55-0700",,"FEMALE","RIGHT","2014-08-16T09:53:35-0700","Trial Accuracy",,"0","1040","1","N/A","90 DEGREES"
"53ef8d59b6145eca0def3b07","BLUE-00064","2014-08-16T09:56:55-0700",,"FEMALE","RIGHT","2014-08-16T09:53:35-0700","Response Window",,"0","1030","1","549.4269728660583","RANDOM IMAGE"
"53ef8d59b6145eca0def3b07","BLUE-00064","2014-08-16T09:56:55-0700",,"FEMALE","RIGHT","2014-08-16T09:53:35-0700","Late Response",,"1","1030","1","957.2100043296814","RANDOM IMAGE"
"53ef8d59b6145eca0def3b07","BLUE-00064","2014-08-16T09:56:55-0700",,"FEMALE","RIGHT","2014-08-16T09:53:35-0700","Cue Type",,"1","1020","1","N/A","RANDOM IMAGE"
"53ef8d59b6145eca0def3b07","BLUE-00064","2014-08-16T09:56:55-0700",,"FEMALE","RIGHT","2014-08-16T09:53:35-0700","Cue Angle",,"0","1060","0","953.7360072135925","DIFFERENT IMAGE"
"53ef8d59b6145eca0def3b07","BLUE-00064","2014-08-16T09:56:55-0700",,"FEMALE","RIGHT","2014-08-16T09:53:35-0700","Response Time",,"0","1100","1","806.5639734268188","90 DEGREES"
"53ef8d59b6145eca0def3b07","BLUE-00064","2014-08-16T09:56:55-0700",,"FEMALE","RIGHT","2014-08-16T09:53:35-0700","Trial Accuracy",,"0","1090","1","806.5639734268188","90 DEGREES"
"53ef8d59b6145eca0def3b07","BLUE-00064","2014-08-16T09:56:55-0700",,"FEMALE","RIGHT","2014-08-16T09:53:35-0700","Response Window",,"1","1080","1","884.5589756965637","RANDOM IMAGE"
"53ef8d59b6145eca0def3b07","BLUE-00064","2014-08-16T09:56:55-0700",,"FEMALE","RIGHT","2014-08-16T09:53:35-0700","Late Response",,"1","1080","1","N/A","RANDOM IMAGE"
"53ef8d59b6145eca0def3b07","BLUE-00064","2014-08-16T09:56:55-0700",,"FEMALE","RIGHT","2014-08-16T09:53:35-0700","Cue Type",,"1","1120","0","N/A","RANDOM IMAGE"
"53ef8d59b6145eca0def3b07","BLUE-00064","2014-08-16T09:56:55-0700",,"FEMALE","RIGHT","2014-08-16T09:53:35-0700","Cue Angle",,"0","1160","0","1100.7689833641052","DIFFERENT IMAGE"
"53ef8d59b6145eca0def3b07","BLUE-00064","2014-08-16T09:56:55-0700",,"FEMALE","RIGHT","2014-08-16T09:53:35-0700","Response Time",,"0","1240","1","931.3070178031921","90 DEGREES"
"53ef8d59b6145eca0def3b07","BLUE-00064","2014-08-16T09:56:55-0700",,"FEMALE","RIGHT","2014-08-16T09:53:35-0700","Response Time",,"1","1230","1","N/A","RANDOM IMAGE"
"53ef8d59b6145eca0def3b07","BLUE-00064","2014-08-16T09:56:55-0700",,"FEMALE","RIGHT","2014-08-16T09:53:35-0700","Response Window",,"0","1270","1","N/A","ADAPTIVE ANGLE"
"53ef8d59b6145eca0def3b07","BLUE-00064","2014-08-16T09:56:55-0700",,"FEMALE","RIGHT","2014-08-16T09:53:35-0700","Late Response",,"0","1270","0","967.8269624710083","90 DEGREES"
"53ef8d59b6145eca0def3b07","BLUE-00064","2014-08-16T09:56:55-0700",,"FEMALE","RIGHT","2014-08-16T09:53:35-0700","Cue Type",,"0","1310","0","930.5370450019836","ADAPTIVE ANGLE"
"53ef8d59b6145eca0def3b07","BLUE-00064","2014-08-16T09:56:55-0700",,"FEMALE","RIGHT","2014-08-16T09:53:35-0700","Cue Angle",,"0","1390","0","457.49902725219727","94"
"53ef8d59b6145eca0def3b07","BLUE-00064","2014-08-16T09:56:55-0700",,"FEMALE","RIGHT","2014-08-16T09:53:35-0700","Response Time",,"0","1550","0","489.30299282073975","ADAPTIVE ANGLE"
"53ef8d59b6145eca0def3b07","BLUE-00064","2014-08-16T09:56:55-0700",,"FEMALE","RIGHT","2014-08-16T09:53:35-0700","Trial Accuracy",,"0","1870","0","489.30299282073975","ADAPTIVE ANGLE"
"53ef8d59b6145eca0def3b07","BLUE-00064","2014-08-16T09:56:55-0700",,"FEMALE","RIGHT","2014-08-16T09:53:35-0700","Response Window",,"0","2510","0","1024.316966533661","ADAPTIVE ANGLE"
"53ef8d59b6145eca0def3b07","BLUE-00064","2014-08-16T09:56:55-0700",,"FEMALE","RIGHT","2014-08-16T09:53:35-0700","Late Response",,"0","2510","0","803.3210039138794","ADAPTIVE ANGLE"
"53ef8d59b6145eca0def3b07","BLUE-00064","2014-08-16T09:56:55-0700",,"FEMALE","RIGHT","2014-08-16T09:53:35-0700","Cue Type",,"0","3790","0","832.5360417366028","90 DEGREES"
"53ef8d59b6145eca0def3b07","BLUE-00064","2014-08-16T09:56:55-0700",,"FEMALE","RIGHT","2014-08-16T09:53:35-0700","Cue Angle",,"0","6350","1","1071.1029767990112","90"
"53ef8d59b6145eca0def3b07","BLUE-00064","2014-08-16T09:56:55-0700",,"FEMALE","RIGHT","2014-08-16T09:53:35-0700","Response Time",,"0","6340","0","897.0940113067627","90 DEGREES"
"53ef8d59b6145eca0def3b07","BLUE-00064","2014-08-16T09:56:55-0700",,"FEMALE","RIGHT","2014-08-16T09:53:35-0700","Trial Accuracy",,"0","6380","1","897.0940113067627","ADAPTIVE ANGLE"
"53ef8d59b6145eca0def3b07","BLUE-00064","2014-08-16T09:56:55-0700",,"FEMALE","RIGHT","2014-08-16T09:53:35-0700","Response Window",,"0","6370","1","1079.8889994621277","90 DEGREES"
"53ef8d59b6145eca0def3b07","BLUE-00064","2014-08-16T09:56:55-0700",,"FEMALE","RIGHT","2014-08-16T09:53:35-0700","Late Response",,"0","6370","1","841.6780233383179","ADAPTIVE ANGLE"
"53ef8d59b6145eca0def3b07","BLUE-00064","2014-08-16T09:56:55-0700",,"FEMALE","RIGHT","2014-08-16T09:53:35-0700","Cue Type",,"0","6360","1","877.8939843177795","90 DEGREES"
"53ef8d59b6145eca0def3b07","BLUE-00064","2014-08-16T09:56:55-0700",,"FEMALE","RIGHT","2014-08-16T09:53:35-0700","Cue Angle",,"0","6340","1","982.4280142784119","90"
"53f79bbcb6145e0b6f4e8002","BLUE-00064","2014-08-22T12:36:30-0700",,"FEMALE","RIGHT","2014-08-22T12:32:56-0700","Response Time",,"0","1000","0","986.0869646072388","90 DEGREES"
"53f79bbcb6145e0b6f4e8002","BLUE-00064","2014-08-22T12:36:30-0700",,"FEMALE","RIGHT","2014-08-22T12:32:56-0700","Trial Accuracy",,"0","1040","0","986.0869646072388","ADAPTIVE ANGLE"
"53f79bbcb6145e0b6f4e8002","BLUE-00064","2014-08-22T12:36:30-0700",,"FEMALE","RIGHT","2014-08-22T12:32:56-0700","Response Window",,"0","1080","0","851.8069982528687","RANDOM IMAGE"
"53f79bbcb6145e0b6f4e8002","BLUE-00064","2014-08-22T12:36:30-0700",,"FEMALE","RIGHT","2014-08-22T12:32:56-0700","Late Response",,"0","1080","1","739.2780184745789","ADAPTIVE ANGLE"
"53f79bbcb6145e0b6f4e8002","BLUE-00064","2014-08-22T12:36:30-0700",,"FEMALE","RIGHT","2014-08-22T12:32:56-0700","Cue Type",,"0","1070","0","875.0410079956055","90 DEGREES"
"53f79bbcb6145e0b6f4e8002","BLUE-00064","2014-08-22T12:36:30-0700",,"FEMALE","RIGHT","2014-08-22T12:32:56-0700","Cue Angle",,"0","1110","0","992.2879934310913","90"
"53f79bbcb6145e0b6f4e8002","BLUE-00064","2014-08-22T12:36:30-0700",,"FEMALE","RIGHT","2014-08-22T12:32:56-0700","Response Time",,"0","1150","1","557.013988494873","90 DEGREES"
"53f79bbcb6145e0b6f4e8002","BLUE-00064","2014-08-22T12:36:30-0700",,"FEMALE","RIGHT","2014-08-22T12:32:56-0700","Trial Accuracy",,"0","1140","1","557.013988494873","RANDOM IMAGE"
"53f79bbcb6145e0b6f4e8002","BLUE-00064","2014-08-22T12:36:30-0700",,"FEMALE","RIGHT","2014-08-22T12:32:56-0700","Response Window",,"0","1130","1","609.7180247306824","ADAPTIVE ANGLE"
"53f79bbcb6145e0b6f4e8002","BLUE-00064","2014-08-22T12:36:30-0700",,"FEMALE","RIGHT","2014-08-22T12:32:56-0700","Late Response",,"0","1130","0","830.7090401649475","RANDOM IMAGE"
"53f79bbcb6145e0b6f4e8002","BLUE-00064","2014-08-22T12:36:30-0700",,"FEMALE","RIGHT","2014-08-22T12:32:56-0700","Cue Type",,"0","1170","1","816.9159889221191","90 DEGREES"
"53f79bbcb6145e0b6f4e8002","BLUE-00064","2014-08-22T12:36:30-0700",,"FEMALE","RIGHT","2014-08-22T12:32:56-0700","Cue Angle",,"0","1160","0","772.7280259132385","90"
"53f79bbcb6145e0b6f4e8002","BLUE-00064","2014-08-22T12:36:30-0700",,"FEMALE","RIGHT","2014-08-22T12:32:56-0700","Response Time",,"0","1200","1","667.1050190925598","RANDOM IMAGE"
"53f79bbcb6145e0b6f4e8002","BLUE-00064","2014-08-22T12:36:30-0700",,"FEMALE","RIGHT","2014-08-22T12:32:56-0700","Trial Accuracy",,"0","1190","0","667.1050190925598","90 DEGREES"
"53f79bbcb6145e0b6f4e8002","BLUE-00064","2014-08-22T12:36:30-0700",,"FEMALE","RIGHT","2014-08-22T12:32:56-0700","Response Window",,"0","1230","0","1094.5109724998474","90 DEGREES"
"53f79bbcb6145e0b6f4e8002","BLUE-00064","2014-08-22T12:36:30-0700",,"FEMALE","RIGHT","2014-08-22T12:32:56-0700","Late Response",,"0","1230","1","720.3919887542725","90 DEGREES"
"53f79bbcb6145e0b6f4e8002","BLUE-00064","2014-08-22T12:36:30-0700",,"FEMALE","RIGHT","2014-08-22T12:32:56-0700","Cue Type",,"0","1220","1","738.3540272712708","90 DEGREES"
"53f79bbcb6145e0b6f4e8002","BLUE-00064","2014-08-22T12:36:30-0700",,"FEMALE","RIGHT","2014-08-22T12:32:56-0700","Cue Angle",,"0","1210","1","894.228994846344","90"
"53f79bbcb6145e0b6f4e8002","BLUE-00064","2014-08-22T12:36:30-0700",,"FEMALE","RIGHT","2014-08-22T12:32:56-0700","Response Time",,"0","1190","1","789.7819876670837","90 DEGREES"
"53f79bbcb6145e0b6f4e8002","BLUE-00064","2014-08-22T12:36:30-0700",,"FEMALE","RIGHT","2014-08-22T12:32:56-0700","Trial Accuracy",,"0","1150","0","789.7819876670837","ADAPTIVE ANGLE"
"53f79bbcb6145e0b6f4e8002","BLUE-00064","2014-08-22T12:36:30-0700",,"FEMALE","RIGHT","2014-08-22T12:32:56-0700","Response Window",,"0","1190","0","775.8390307426453","RANDOM IMAGE"
"53f79bbcb6145e0b6f4e8002","BLUE-00064","2014-08-22T12:36:30-0700",,"FEMALE","RIGHT","2014-08-22T12:32:56-0700","Late Response",,"0","1190","1","1035.4740023612976","RANDOM IMAGE"
"53f79bbcb6145e0b6f4e8002","BLUE-00064","2014-08-22T12:36:30-0700",,"FEMALE","RIGHT","2014-08-22T12:32:56-0700","Cue Type",,"0","1180","1","848.1450080871582","ADAPTIVE ANGLE"
"53f79bbcb6145e0b6f4e8002","BLUE-00064","2014-08-22T12:36:30-0700",,"FEMALE","RIGHT","2014-08-22T12:32:56-0700","Cue Angle",,"0","1170","0","810.8289837837219","100"
"53f79bbcb6145e0b6f4e8002","BLUE-00064","2014-08-22T12:36:30-0700",,"FEMALE","RIGHT","2014-08-22T12:32:56-0700","Response Time",,"0","1210","0","801.5890121459961","ADAPTIVE ANGLE"
"53f79bbcb6145e0b6f4e8002","BLUE-00064","2014-08-22T12:36:30-0700",,"FEMALE","RIGHT","2014-08-22T12:32:56-0700","Trial Accuracy",,"0","1250","0","801.5890121459961","ADAPTIVE ANGLE"
"53f79bbcb6145e0b6f4e8002","BLUE-00064","2014-08-22T12:36:30-0700",,"FEMALE","RIGHT","2014-08-22T12:32:56-0700","Response Window",,"0","1330","0","806.8030476570129","RANDOM IMAGE"
"53f79bbcb6145e0b6f4e8002","BLUE-00064","2014-08-22T12:36:30-0700",,"FEMALE","RIGHT","2014-08-22T12:32:56-0700","Late Response",,"0","1330","1","723.363995552063","ADAPTIVE ANGLE"
"53f79bbcb6145e0b6f4e8002","BLUE-00064","2014-08-22T12:36:30-0700",,"FEMALE","RIGHT","2014-08-22T12:32:56-0700","Cue Type",,"0","1320","0","636.7449760437012","RANDOM IMAGE"
"53f79bbcb6145e0b6f4e8002","BLUE-00064","2014-08-22T12:36:30-0700",,"FEMALE","RIGHT","2014-08-22T12:32:56-0700","Cue Angle",,"0","1360","1","540.5629873275757","DIFFERENT IMAGE"
"53f7f55eb6145e73654e7ff9","GREEN-00040","2014-08-22T18:58:54-0700",,"FEMALE","RIGHT","2014-08-22T18:55:34-0700","Response Time",,"0","1000","1","840.6299948692322","RANDOM IMAGE"
"53f7f55eb6145e73654e7ff9","GREEN-00040","2014-08-22T18:58:54-0700",,"FEMALE","RIGHT","2014-08-22T18:55:34-0700","Trial Accuracy",,"0","990","0","840.6299948692322","ADAPTIVE ANGLE"
"53f7f55eb6145e73654e7ff9","GREEN-00040","2014-08-22T18:58:54-0700",,"FEMALE","RIGHT","2014-08-22T18:55:34-0700","Response Window",,"0","1030","0","698.652982711792","ADAPTIVE ANGLE"
"53f7f55eb6145e73654e7ff9","GREEN-00040","2014-08-22T18:58:54-0700",,"FEMALE","RIGHT","2014-08-22T18:55:34-0700","Late Response",,"0","1030","0","743.0509924888611","RANDOM IMAGE"
"53f7f55eb6145e73654e7ff9","GREEN-00040","2014-08-22T18:58:54-0700",,"FEMALE","RIGHT","2014-08-22T18:55:34-0700","Cue Type",,"0","1070","1","641.0470008850098","ADAPTIVE ANGLE"
"53f7f55eb6145e73654e7ff9","GREEN-00040","2014-08-22T18:58:54-0700",,"FEMALE","RIGHT","2014-08-22T18:55:34-0700","Cue Angle",,"0","1060","0","858.4440350532532","96"
"53f7f55eb6145e73654e7ff9","GREEN-00040","2014-08-22T18:58:54-0700",,"FEMALE","RIGHT","2014-08-22T18:55:34-0700","Response Time",,"0","1100","0","775.5280137062073","ADAPTIVE ANGLE"
"53f7f55eb6145e73654e7ff9","GREEN-00040","2014-08-22T18:58:54-0700",,"FEMALE","RIGHT","2014-08-22T18:55:34-0700","Trial Accuracy",,"0","1140","1","775.5280137062073","90 DEGREES"
"53f7f55eb6145e73654e7ff9","GREEN-00040","2014-08-22T18:58:54-0700",,"FEMALE","RIGHT","2014-08-22T18:55:34-0700","Response Window",,"0","1130","1","387.6339793205261","90 DEGREES"
"53f7f55eb6145e73654e7ff9","GREEN-00040","2014-08-22T18:58:54-0700",,"FEMALE","RIGHT","2014-08-22T18:55:34-0700","Late Response",,"0","1130","1","445.0700283050537","ADAPTIVE ANGLE"
"53f7f55eb6145e73654e7ff9","GREEN-00040","2014-08-22T18:58:54-0700",,"FEMALE","RIGHT","2014-08-22T18:55:34-0700","Cue Type",,"0","1120","0","469.6260094642639","RANDOM IMAGE"
"53f7f55eb6145e73654e7ff9","GREEN-00040","2014-08-22T18:58:54-0700",,"FEMALE","RIGHT","2014-08-22T18:55:34-0700","Cue Angle",,"0","1160","1","599.4150042533875","DIFFERENT IMAGE"
"53f7f55eb6145e73654e7ff9","GREEN-00040","2014-08-22T18:58:54-0700",,"FEMALE","RIGHT","2014-08-22T18:55:34-0700","Response Time",,"0","1150","1","568.7180161476135","90 DEGREES"
"53f7f55eb6145e73654e7ff9","GREEN-00040","2014-08-22T18:58:54-0700",,"FEMALE","RIGHT","2014-08-22T18:55:34-0700","Trial Accuracy",,"0","1140","0","568.7180161476135","ADAPTIVE ANGLE"
"53f7f55eb6145e73654e7ff9","GREEN-00040","2014-08-22T18:58:54-0700",,"FEMALE","RIGHT","2014-08-22T18:55:34-0700","Response Window",,"0","1180","0","594.9879884719849","90 DEGREES"
"53f7f55eb6145e73654e7ff9","GREEN-00040","2014-08-22T18:58:54-0700",,"FEMALE","RIGHT","2014-08-22T18:55:34-0700","Late Response",,"0","1180","1","561.7769956588745","90 DEGREES"
"53f7f55eb6145e73654e7ff9","GREEN-00040","2014-08-22T18:58:54-0700",,"FEMALE","RIGHT","2014-08-22T18:55:34-0700","Cue Type",,"0","1170","1","555.4620027542114","RANDOM IMAGE"
"53f7f55eb6145e73654e7ff9","GREEN-00040","2014-08-22T18:58:54-0700",,"FEMALE","RIGHT","2014-08-22T18:55:34-0700","Cue Angle",,"0","1160","1","703.6110162734985","DIFFERENT IMAGE"
"53f7f55eb6145e73654e7ff9","GREEN-00040","2014-08-22T18:58:54-0700",,"FEMALE","RIGHT","2014-08-22T18:55:34-0700","Response Time",,"0","1140","1","751.911997795105","RANDOM IMAGE"
"53f7f55eb6145e73654e7ff9","GREEN-00040","2014-08-22T18:58:54-0700",,"FEMALE","RIGHT","2014-08-22T18:55:34-0700","Trial Accuracy",,"0","1100","0","751.911997795105","ADAPTIVE ANGLE"
"53f7f55eb6145e73654e7ff9","GREEN-00040","2014-08-22T18:58:54-0700",,"FEMALE","RIGHT","2014-08-22T18:55:34-0700","Response Window",,"0","1140","0","535.2039933204651","90 DEGREES"
"53f7f55eb6145e73654e7ff9","GREEN-00040","2014-08-22T18:58:54-0700",,"FEMALE","RIGHT","2014-08-22T18:55:34-0700","Late Response",,"0","1140","1","470.6990122795105","RANDOM IMAGE"
"53f7f55eb6145e73654e7ff9","GREEN-00040","2014-08-22T18:58:54-0700",,"FEMALE","RIGHT","2014-08-22T18:55:34-0700","Cue Type",,"0","1130","1","600.849986076355","RANDOM IMAGE"
"53f7f55eb6145e73654e7ff9","GREEN-00040","2014-08-22T18:58:54-0700",,"FEMALE","RIGHT","2014-08-22T18:55:34-0700","Cue Angle",,"0","1120","1","629.709005355835","DIFFERENT IMAGE"
"53f7f55eb6145e73654e7ff9","GREEN-00040","2014-08-22T18:58:54-0700",,"FEMALE","RIGHT","2014-08-22T18:55:34-0700","Response Time",,"0","1100","1","556.6139817237854","90 DEGREES"
"53f7f55eb6145e73654e7ff9","GREEN-00040","2014-08-22T18:58:54-0700",,"FEMALE","RIGHT","2014-08-22T18:55:34-0700","Trial Accuracy",,"0","1060","1","556.6139817237854","90 DEGREES"
"53f7f55eb6145e73654e7ff9","GREEN-00040","2014-08-22T18:58:54-0700",,"FEMALE","RIGHT","2014-08-22T18:55:34-0700","Response Window",,"0","980","1","535.394012928009","RANDOM IMAGE"
"53f7f55eb6145e73654e7ff9","GREEN-00040","2014-08-22T18:58:54-0700",,"FEMALE","RIGHT","2014-08-22T18:55:34-0700","Late Response",,"0","980","1","680.7420253753662","ADAPTIVE ANGLE"
"53f7f55eb6145e73654e7ff9","GREEN-00040","2014-08-22T18:58:54-0700",,"FEMALE","RIGHT","2014-08-22T18:55:34-0700","Cue Type",,"0","820","0","706.525981426239","90 DEGREES"
"53f7f55eb6145e73654e7ff9","GREEN-00040","2014-08-22T18:58:54-0700",,"FEMALE","RIGHT","2014-08-22T18:55:34-0700","Cue Angle",,"0","860","1","798.5329627990723","90"
"53f969e6b6145ed0594e7ff7","GREEN-00039","2014-08-23T21:28:20-0700",,"FEMALE","RIGHT","2014-08-23T21:22:29-0700","Trial Accuracy",,"1","1000","1","N/A","90 DEGREES"
"53f969e6b6145ed0594e7ff7","GREEN-00039","2014-08-23T21:28:20-0700",,"FEMALE","RIGHT","2014-08-23T21:22:29-0700","Response Time",,"1","1040","1","N/A","90 DEGREES"
"53f969e6b6145ed0594e7ff7","GREEN-00039","2014-08-23T21:28:20-0700",,"FEMALE","RIGHT","2014-08-23T21:22:29-0700","Response Window",,"1","1080","1","N/A","RANDOM IMAGE"
"53f969e6b6145ed0594e7ff7","GREEN-00039","2014-08-23T21:28:20-0700",,"FEMALE","RIGHT","2014-08-23T21:22:29-0700","Late Response",,"0","1080","1","N/A","RANDOM IMAGE"
"53f969e6b6145ed0594e7ff7","GREEN-00039","2014-08-23T21:28:20-0700",,"FEMALE","RIGHT","2014-08-23T21:22:29-0700","Cue Type",,"0","1160","1","970.4979658126831","ADAPTIVE ANGLE"
"53f969e6b6145ed0594e7ff7","GREEN-00039","2014-08-23T21:28:20-0700",,"FEMALE","RIGHT","2014-08-23T21:22:29-0700","Cue Angle",,"1","1150","0","N/A","92"
"53f969e6b6145ed0594e7ff7","GREEN-00039","2014-08-23T21:28:20-0700",,"FEMALE","RIGHT","2014-08-23T21:22:29-0700","Response Time",,"0","1190","1","1043.370008468628","RANDOM IMAGE"
"53f969e6b6145ed0594e7ff7","GREEN-00039","2014-08-23T21:28:20-0700",,"FEMALE","RIGHT","2014-08-23T21:22:29-0700","Trial Accuracy",,"0","1180","1","1043.370008468628","90 DEGREES"
"53f969e6b6145ed0594e7ff7","GREEN-00039","2014-08-23T21:28:20-0700",,"FEMALE","RIGHT","2014-08-23T21:22:29-0700","Response Window",,"1","1170","1","1041.5209531784058","90 DEGREES"
"53f969e6b6145ed0594e7ff7","GREEN-00039","2014-08-23T21:28:20-0700",,"FEMALE","RIGHT","2014-08-23T21:22:29-0700","Late Response",,"0","1170","0","N/A","RANDOM IMAGE"
"53f969e6b6145ed0594e7ff7","GREEN-00039","2014-08-23T21:28:20-0700",,"FEMALE","RIGHT","2014-08-23T21:22:29-0700","Cue Type",,"0","1210","1","1061.765968799591","ADAPTIVE ANGLE"
"53f969e6b6145ed0594e7ff7","GREEN-00039","2014-08-23T21:28:20-0700",,"FEMALE","RIGHT","2014-08-23T21:22:29-0700","Cue Angle",,"0","1200","0","1108.9249849319458","94"
"53f969e6b6145ed0594e7ff7","GREEN-00039","2014-08-23T21:28:20-0700",,"FEMALE","RIGHT","2014-08-23T21:22:29-0700","Response Time",,"0","1240","1","1111.523985862732","RANDOM IMAGE"
"53f969e6b6145ed0594e7ff7","GREEN-00039","2014-08-23T21:28:20-0700",,"FEMALE","RIGHT","2014-08-23T21:22:29-0700","Response Time",,"1","1230","1","N/A","90 DEGREES"
"53f969e6b6145ed0594e7ff7","GREEN-00039","2014-08-23T21:28:20-0700",,"FEMALE","RIGHT","2014-08-23T21:22:29-0700","Response Window",,"1","1270","0","N/A","90 DEGREES"
"53f969e6b6145ed0594e7ff7","GREEN-00039","2014-08-23T21:28:20-0700",,"FEMALE","RIGHT","2014-08-23T21:22:29-0700","Late Response",,"1","1270","1","N/A","90 DEGREES"
"53f969e6b6145ed0594e7ff7","GREEN-00039","2014-08-23T21:28:20-0700",,"FEMALE","RIGHT","2014-08-23T21:22:29-0700","Cue Type",,"1","1310","0","N/A","ADAPTIVE ANGLE"
"53f969e6b6145ed0594e7ff7","GREEN-00039","2014-08-23T21:28:20-0700",,"FEMALE","RIGHT","2014-08-23T21:22:29-0700","Cue Angle",,"1","1390","0","N/A","96"
"53f969e6b6145ed0594e7ff7","GREEN-00039","2014-08-23T21:28:20-0700",,"FEMALE","RIGHT","2014-08-23T21:22:29-0700","Response Time",,"0","1550","1","1302.0979762077332","RANDOM IMAGE"
"53f969e6b6145ed0594e7ff7","GREEN-00039","2014-08-23T21:28:20-0700",,"FEMALE","RIGHT","2014-08-23T21:22:29-0700","Response Time",,"1","1540","1","N/A","ADAPTIVE ANGLE"
"53f969e6b6145ed0594e7ff7","GREEN-00039","2014-08-23T21:28:20-0700",,"FEMALE","RIGHT","2014-08-23T21:22:29-0700","Response Window",,"0","1580","0","N/A","RANDOM IMAGE"
"53f969e6b6145ed0594e7ff7","GREEN-00039","2014-08-23T21:28:20-0700",,"FEMALE","RIGHT","2014-08-23T21:22:29-0700","Late Response",,"1","1580","1","1298.4430193901062","90 DEGREES"
"53f969e6b6145ed0594e7ff7","GREEN-00039","2014-08-23T21:28:20-0700",,"FEMALE","RIGHT","2014-08-23T21:22:29-0700","Cue Type",,"1","1570","0","N/A","ADAPTIVE ANGLE"
"53f969e6b6145ed0594e7ff7","GREEN-00039","2014-08-23T21:28:20-0700",,"FEMALE","RIGHT","2014-08-23T21:22:29-0700","Cue Angle",,"0","1610","0","1511.4529728889465","100"
"53f969e6b6145ed0594e7ff7","GREEN-00039","2014-08-23T21:28:20-0700",,"FEMALE","RIGHT","2014-08-23T21:22:29-0700","Response Time",,"0","1650","0","1650","ADAPTIVE ANGLE"
"53f969e6b6145ed0594e7ff7","GREEN-00039","2014-08-23T21:28:20-0700",,"FEMALE","RIGHT","2014-08-23T21:22:29-0700","Trial Accuracy",,"0","1730","0","1650","ADAPTIVE ANGLE"
"53f969e6b6145ed0594e7ff7","GREEN-00039","2014-08-23T21:28:20-0700",,"FEMALE","RIGHT","2014-08-23T21:22:29-0700","Response Window",,"0","1890","0","1271.537959575653","90 DEGREES"
"53f969e6b6145ed0594e7ff7","GREEN-00039","2014-08-23T21:28:20-0700",,"FEMALE","RIGHT","2014-08-23T21:22:29-0700","Late Response",,"0","1890","1","1352.6529669761658","ADAPTIVE ANGLE"
"53f969e6b6145ed0594e7ff7","GREEN-00039","2014-08-23T21:28:20-0700",,"FEMALE","RIGHT","2014-08-23T21:22:29-0700","Cue Type",,"0","1880","0","1454.8580050468445","RANDOM IMAGE"
"53f969e6b6145ed0594e7ff7","GREEN-00039","2014-08-23T21:28:20-0700",,"FEMALE","RIGHT","2014-08-23T21:22:29-0700","Cue Angle",,"0","1920","1","1210.0380063056946","DIFFERENT IMAGE"
"53fbb9a4b6145e1d5203fe40","BLUE-00067","2014-08-25T15:33:09-0700",,"FEMALE","RIGHT","2014-08-25T15:29:51-0700","Response Time",,"0","1000","1","789.106011390686","90 DEGREES"
"53fbb9a4b6145e1d5203fe40","BLUE-00067","2014-08-25T15:33:09-0700",,"FEMALE","RIGHT","2014-08-25T15:29:51-0700","Trial Accuracy",,"0","990","0","789.106011390686","90 DEGREES"
"53fbb9a4b6145e1d5203fe40","BLUE-00067","2014-08-25T15:33:09-0700",,"FEMALE","RIGHT","2014-08-25T15:29:51-0700","Response Window",,"0","1030","0","942.0260190963745","RANDOM IMAGE"
"53fbb9a4b6145e1d5203fe40","BLUE-00067","2014-08-25T15:33:09-0700",,"FEMALE","RIGHT","2014-08-25T15:29:51-0700","Late Response",,"0","1030","1","947.6459622383118","90 DEGREES"
"53fbb9a4b6145e1d5203fe40","BLUE-00067","2014-08-25T15:33:09-0700",,"FEMALE","RIGHT","2014-08-25T15:29:51-0700","Cue Type",,"0","1020","1","878.8580298423767","RANDOM IMAGE"
"53fbb9a4b6145e1d5203fe40","BLUE-00067","2014-08-25T15:33:09-0700",,"FEMALE","RIGHT","2014-08-25T15:29:51-0700","Cue Angle",,"0","1010","1","795.6790328025818","DIFFERENT IMAGE"
"53fbb9a4b6145e1d5203fe40","BLUE-00067","2014-08-25T15:33:09-0700",,"FEMALE","RIGHT","2014-08-25T15:29:51-0700","Response Time",,"0","990","1","793.7780022621155","RANDOM IMAGE"
"53fbb9a4b6145e1d5203fe40","BLUE-00067","2014-08-25T15:33:09-0700",,"FEMALE","RIGHT","2014-08-25T15:29:51-0700","Trial Accuracy",,"0","950","0","793.7780022621155","ADAPTIVE ANGLE"
"53fbb9a4b6145e1d5203fe40","BLUE-00067","2014-08-25T15:33:09-0700",,"FEMALE","RIGHT","2014-08-25T15:29:51-0700","Response Window",,"0","990","0","847.5450277328491","ADAPTIVE ANGLE"
"53fbb9a4b6145e1d5203fe40","BLUE-00067","2014-08-25T15:33:09-0700",,"FEMALE","RIGHT","2014-08-25T15:29:51-0700","Late Response",,"0","990","0","947.9429721832275","ADAPTIVE ANGLE"
"53fbb9a4b6145e1d5203fe40","BLUE-00067","2014-08-25T15:33:09-0700",,"FEMALE","RIGHT","2014-08-25T15:29:51-0700","Cue Type",,"0","1030","0","924.8260259628296","ADAPTIVE ANGLE"
"53fbb9a4b6145e1d5203fe40","BLUE-00067","2014-08-25T15:33:09-0700",,"FEMALE","RIGHT","2014-08-25T15:29:51-0700","Cue Angle",,"0","1110","0","766.8269872665405","98"
"53fbb9a4b6145e1d5203fe40","BLUE-00067","2014-08-25T15:33:09-0700",,"FEMALE","RIGHT","2014-08-25T15:29:51-0700","Response Time",,"0","1270","1","717.070996761322","90 DEGREES"
"53fbb9a4b6145e1d5203fe40","BLUE-00067","2014-08-25T15:33:09-0700",,"FEMALE","RIGHT","2014-08-25T15:29:51-0700","Trial Accuracy",,"0","1260","1","717.070996761322","RANDOM IMAGE"
"53fbb9a4b6145e1d5203fe40","BLUE-00067","2014-08-25T15:33:09-0700",,"FEMALE","RIGHT","2014-08-25T15:29:51-0700","Response Window",,"0","1250","1","727.9929518699646","90 DEGREES"
"53fbb9a4b6145e1d5203fe40","BLUE-00067","2014-08-25T15:33:09-0700",,"FEMALE","RIGHT","2014-08-25T15:29:51-0700","Late Response",,"0","1250","1","910.290002822876","90 DEGREES"
"53fbb9a4b6145e1d5203fe40","BLUE-00067","2014-08-25T15:33:09-0700",,"FEMALE","RIGHT","2014-08-25T15:29:51-0700","Cue Type",,"0","1230","1","860.4530096054077","ADAPTIVE ANGLE"
"53fbb9a4b6145e1d5203fe40","BLUE-00067","2014-08-25T15:33:09-0700",,"FEMALE","RIGHT","2014-08-25T15:29:51-0700","Cue Angle",,"0","1190","0","750.0369548797607","100"
"53fbb9a4b6145e1d5203fe40","BLUE-00067","2014-08-25T15:33:09-0700",,"FEMALE","RIGHT","2014-08-25T15:29:51-0700","Response Time",,"0","1230","1","862.0309829711914","90 DEGREES"
"53fbb9a4b6145e1d5203fe40","BLUE-00067","2014-08-25T15:33:09-0700",,"FEMALE","RIGHT","2014-08-25T15:29:51-0700","Trial Accuracy",,"0","1220","0","862.0309829711914","ADAPTIVE ANGLE"
"53fbb9a4b6145e1d5203fe40","BLUE-00067","2014-08-25T15:33:09-0700",,"FEMALE","RIGHT","2014-08-25T15:29:51-0700","Response Window",,"0","1260","0","848.2319712638855","90 DEGREES"
"53fbb9a4b6145e1d5203fe40","BLUE-00067","2014-08-25T15:33:09-0700",,"FEMALE","RIGHT","2014-08-25T15:29:51-0700","Late Response",,"0","1260","1","650.1870155334473","RANDOM IMAGE"
"53fbb9a4b6145e1d5203fe40","BLUE-00067","2014-08-25T15:33:09-0700",,"FEMALE","RIGHT","2014-08-25T15:29:51-0700","Cue Type",,"0","1250","1","685.8629584312439","90 DEGREES"
"53fbb9a4b6145e1d5203fe40","BLUE-00067","2014-08-25T15:33:09-0700",,"FEMALE","RIGHT","2014-08-25T15:29:51-0700","Cue Angle",,"1","1240","1","N/A","90"
"53fbb9a4b6145e1d5203fe40","BLUE-00067","2014-08-25T15:33:09-0700",,"FEMALE","RIGHT","2014-08-25T15:29:51-0700","Response Time",,"0","1280","1","767.8309679031372","RANDOM IMAGE"
"53fbb9a4b6145e1d5203fe40","BLUE-00067","2014-08-25T15:33:09-0700",,"FEMALE","RIGHT","2014-08-25T15:29:51-0700","Trial Accuracy",,"0","1270","0","767.8309679031372","ADAPTIVE ANGLE"
"53fbb9a4b6145e1d5203fe40","BLUE-00067","2014-08-25T15:33:09-0700",,"FEMALE","RIGHT","2014-08-25T15:29:51-0700","Response Window",,"0","1310","0","822.3090171813965","RANDOM IMAGE"
"53fbb9a4b6145e1d5203fe40","BLUE-00067","2014-08-25T15:33:09-0700",,"FEMALE","RIGHT","2014-08-25T15:29:51-0700","Late Response",,"1","1310","1","827.672004699707","RANDOM IMAGE"
"53fbb9a4b6145e1d5203fe40","BLUE-00067","2014-08-25T15:33:09-0700",,"FEMALE","RIGHT","2014-08-25T15:29:51-0700","Cue Type",,"1","1300","1","N/A","ADAPTIVE ANGLE"
"53fbb9a4b6145e1d5203fe40","BLUE-00067","2014-08-25T15:33:09-0700",,"FEMALE","RIGHT","2014-08-25T15:29:51-0700","Cue Angle",,"0","1340","0","563.3879899978638","106"
"53fd28b0b6145edd4e726a1a","GREEN-00039","2014-08-26T17:39:11-0700",,"FEMALE","RIGHT","2014-08-26T17:34:49-0700","Trial Accuracy",,"1","1000","1","N/A","RANDOM IMAGE"
