"id","participant_id","timesent_utc","name","gender","handedness","time_gameplayed_utc","details","Late Response","Response Window","Trial Type","Correct Button","Response Time","Color Pressed","Color Shown"
"5387f1cdb6145eb6457b23c7","ADMIN-UCSF-7543","2014-05-29T19:49:48-0700","Joaq email","MALE","RIGHT","2014-05-29T19:26:20-0700","Word Game",,"0","800","CONGRUENT","1","613.8370037078857","YELLOW","YELLOW"
"5387f1cdb6145eb6457b23c7","ADMIN-UCSF-7543","2014-05-29T19:49:48-0700","Joaq email","MALE","RIGHT","2014-05-29T19:26:20-0700","Word Game",,"0","790","CONGRUENT","0","599.8259782791138","YELLOW","GREEN"
"5387f1cdb6145eb6457b23c7","ADMIN-UCSF-7543","2014-05-29T19:49:48-0700","Joaq email","MALE","RIGHT","2014-05-29T19:26:20-0700","Word Game",,"0","800","NEUTRAL","0","515.1990056037903","YELLOW","GREEN"
"5387f1cdb6145eb6457b23c7","ADMIN-UCSF-7543","2014-05-29T19:49:48-0700","Joaq email","MALE","RIGHT","2014-05-29T19:26:20-0700","Word Game",,"0","830","CONGRUENT","1","683.0779910087585","YELLOW","YELLOW"
"5387f1cdb6145eb6457b23c7","ADMIN-UCSF-7543","2014-05-29T19:49:48-0700","Joaq email","MALE","RIGHT","2014-05-29T19:26:20-0700","Word Game",,"0","800","INCONGRUENT","1","548.4569668769836","WHITE","WHITE"
"5387f1cdb6145eb6457b23c7","ADMIN-UCSF-7543","2014-05-29T19:49:48-0700","Joaq email","MALE","RIGHT","2014-05-29T19:26:20-0700","Word Game",,"0","790","INCONGRUENT","0","649.8459577560425","YELLOW","GREEN"
"5387f1cdb6145eb6457b23c7","ADMIN-UCSF-7543","2014-05-29T19:49:48-0700","Joaq email","MALE","RIGHT","2014-05-29T19:26:20-0700","Word Game",,"0","840","NEUTRAL","0","781.4689874649048","WHITE","GREEN"
"5387f1cdb6145eb6457b23c7","ADMIN-UCSF-7543","2014-05-29T19:49:48-0700","Joaq email","MALE","RIGHT","2014-05-29T19:26:20-0700","Word Game",,"0","880","NEUTRAL","0","547.1110343933105","WHITE","YELLOW"
"5387f1cdb6145eb6457b23c7","ADMIN-UCSF-7543","2014-05-29T19:49:48-0700","Joaq email","MALE","RIGHT","2014-05-29T19:26:20-0700","Word Game",,"0","830","INCONGRUENT","1","597.7039933204651","WHITE","WHITE"
"5387f1cdb6145eb6457b23c7","ADMIN-UCSF-7543","2014-05-29T19:49:48-0700","Joaq email","MALE","RIGHT","2014-05-29T19:26:20-0700","Word Game",,"0","820","INCONGRUENT","0","747.979998588562","WHITE","GREEN"
"5387f1cdb6145eb6457b23c7","ADMIN-UCSF-7543","2014-05-29T19:49:48-0700","Joaq email","MALE","RIGHT","2014-05-29T19:26:20-0700","Word Game",,"0","820","CONGRUENT","0","413.4719967842102","YELLOW","RED"
"5387f1cdb6145eb6457b23c7","ADMIN-UCSF-7543","2014-05-29T19:49:48-0700","Joaq email","MALE","RIGHT","2014-05-29T19:26:20-0700","Word Game",,"0","920","NEUTRAL","1","494.9209690093994","WHITE","WHITE"
"5388aec6b6145eed507b23cb","ADMIN-UCSF-7543","2014-05-30T09:16:05-0700","Joaq email","MALE","RIGHT","2014-05-29T19:26:20-0700","Word Game",,"0","800","CONGRUENT","1","613.8370037078857","YELLOW","YELLOW"
"5388aec6b6145eed507b23cb","ADMIN-UCSF-7543","2014-05-30T09:16:05-0700","Joaq email","MALE","RIGHT","2014-05-29T19:26:20-0700","Word Game",,"0","790","CONGRUENT","0","599.8259782791138","YELLOW","GREEN"
"5388aec6b6145eed507b23cb","ADMIN-UCSF-7543","2014-05-30T09:16:05-0700","Joaq email","MALE","RIGHT","2014-05-29T19:26:20-0700","Word Game",,"0","800","NEUTRAL","0","515.1990056037903","YELLOW","GREEN"
"5388aec6b6145eed507b23cb","ADMIN-UCSF-7543","2014-05-30T09:16:05-0700","Joaq email","MALE","RIGHT","2014-05-29T19:26:20-0700","Word Game",,"0","830","CONGRUENT","1","683.0779910087585","YELLOW","YELLOW"
"5388aec6b6145eed507b23cb","ADMIN-UCSF-7543","2014-05-30T09:16:05-0700","Joaq email","MALE","RIGHT","2014-05-29T19:26:20-0700","Word Game",,"0","800","INCONGRUENT","1","548.4569668769836","WHITE","WHITE"
"5388aec6b6145eed507b23cb","ADMIN-UCSF-7543","2014-05-30T09:16:05-0700","Joaq email","MALE","RIGHT","2014-05-29T19:26:20-0700","Word Game",,"0","790","INCONGRUENT","0","649.8459577560425","YELLOW","GREEN"
"5388aec6b6145eed507b23cb","ADMIN-UCSF-7543","2014-05-30T09:16:05-0700","Joaq email","MALE","RIGHT","2014-05-29T19:26:20-0700","Word Game",,"0","840","NEUTRAL","0","781.4689874649048","WHITE","GREEN"
"5388aec6b6145eed507b23cb","ADMIN-UCSF-7543","2014-05-30T09:16:05-0700","Joaq email","MALE","RIGHT","2014-05-29T19:26:20-0700","Word Game",,"0","880","NEUTRAL","0","547.1110343933105","WHITE","YELLOW"
"5388aec6b6145eed507b23cb","ADMIN-UCSF-7543","2014-05-30T09:16:05-0700","Joaq email","MALE","RIGHT","2014-05-29T19:26:20-0700","Word Game",,"0","830","INCONGRUENT","1","597.7039933204651","WHITE","WHITE"
"5388aec6b6145eed507b23cb","ADMIN-UCSF-7543","2014-05-30T09:16:05-0700","Joaq email","MALE","RIGHT","2014-05-29T19:26:20-0700","Word Game",,"0","820","INCONGRUENT","0","747.979998588562","WHITE","GREEN"
"5388aec6b6145eed507b23cb","ADMIN-UCSF-7543","2014-05-30T09:16:05-0700","Joaq email","MALE","RIGHT","2014-05-29T19:26:20-0700","Word Game",,"0","820","CONGRUENT","0","413.4719967842102","YELLOW","RED"
"5388aec6b6145eed507b23cb","ADMIN-UCSF-7543","2014-05-30T09:16:05-0700","Joaq email","MALE","RIGHT","2014-05-29T19:26:20-0700","Word Game",,"0","920","NEUTRAL","1","494.9209690093994","WHITE","WHITE"
"538d5d14b6145e863b3b63cb","BLUE-00044","2014-06-02T22:28:52-0700","Joaq email","MALE","RIGHT","2014-06-02T22:27:43-0700","Word Game",,"1","800","NEUTRAL","0","N/A","N/A","WHITE"
"538d5d14b6145e863b3b63cb","BLUE-00044","2014-06-02T22:28:52-0700","Joaq email","MALE","RIGHT","2014-06-02T22:27:43-0700","Word Game",,"1","800","CONGRUENT","0","N/A","N/A","WHITE"
"538d5d14b6145e863b3b63cb","BLUE-00044","2014-06-02T22:28:52-0700","Joaq email","MALE","RIGHT","2014-06-02T22:27:43-0700","Word Game",,"1","800","INCONGRUENT","0","N/A","N/A","GREEN"
"53dd5472b6145eba5a906ad7","GREEN-00025","2014-08-02T16:13:19-0500",,"FEMALE","LEFT","2014-08-02T16:08:46-0500","Word Game",,"0","800","NEUTRAL","1","797.9369759559631","RED","RED"
"53dd5472b6145eba5a906ad7","GREEN-00025","2014-08-02T16:13:19-0500",,"FEMALE","LEFT","2014-08-02T16:08:46-0500","Word Game",,"0","800","INCONGRUENT","0","800","N/A","YELLOW"
"53dd5472b6145eba5a906ad7","GREEN-00025","2014-08-02T16:13:19-0500",,"FEMALE","LEFT","2014-08-02T16:08:46-0500","Word Game",,"0","800","CONGRUENT","0","800","N/A","WHITE"
"53dd5472b6145eba5a906ad7","GREEN-00025","2014-08-02T16:13:19-0500",,"FEMALE","LEFT","2014-08-02T16:08:46-0500","Word Game",,"0","840","CONGRUENT","1","760.9850168228149","WHITE","WHITE"
"53dd5472b6145eba5a906ad7","GREEN-00025","2014-08-02T16:13:19-0500",,"FEMALE","LEFT","2014-08-02T16:08:46-0500","Word Game",,"0","790","NEUTRAL","1","760.824978351593","GREEN","GREEN"
"53dd5472b6145eba5a906ad7","GREEN-00025","2014-08-02T16:13:19-0500",,"FEMALE","LEFT","2014-08-02T16:08:46-0500","Word Game",,"0","780","NEUTRAL","1","676.4959692955017","GREEN","GREEN"
"53dd5472b6145eba5a906ad7","GREEN-00025","2014-08-02T16:13:19-0500",,"FEMALE","LEFT","2014-08-02T16:08:46-0500","Word Game",,"0","840","INCONGRUENT","0","840","N/A","WHITE"
"53dd5472b6145eba5a906ad7","GREEN-00025","2014-08-02T16:13:19-0500",,"FEMALE","LEFT","2014-08-02T16:08:46-0500","Word Game",,"0","830","CONGRUENT","1","645.6949710845947","WHITE","WHITE"
"53dd5472b6145eba5a906ad7","GREEN-00025","2014-08-02T16:13:19-0500",,"FEMALE","LEFT","2014-08-02T16:08:46-0500","Word Game",,"0","820","CONGRUENT","1","809.6950054168701","RED","RED"
"53dd5472b6145eba5a906ad7","GREEN-00025","2014-08-02T16:13:19-0500",,"FEMALE","LEFT","2014-08-02T16:08:46-0500","Word Game",,"0","880","INCONGRUENT","0","880","N/A","GREEN"
"53dd5472b6145eba5a906ad7","GREEN-00025","2014-08-02T16:13:19-0500",,"FEMALE","LEFT","2014-08-02T16:08:46-0500","Word Game",,"1","800","CONGRUENT","0","N/A","YELLOW","YELLOW"
"53dd5472b6145eba5a906ad7","GREEN-00025","2014-08-02T16:13:19-0500",,"FEMALE","LEFT","2014-08-02T16:08:46-0500","Word Game",,"1","840","CONGRUENT","0","N/A","N/A","GREEN"
"53dd5472b6145eba5a906ad7","GREEN-00025","2014-08-02T16:13:19-0500",,"FEMALE","LEFT","2014-08-02T16:08:46-0500","Word Game",,"0","760","NEUTRAL","1","757.4519515037537","RED","RED"
"53dd5472b6145eba5a906ad7","GREEN-00025","2014-08-02T16:13:19-0500",,"FEMALE","LEFT","2014-08-02T16:08:46-0500","Word Game",,"1","720","NEUTRAL","0","N/A","N/A","YELLOW"
"53dd5472b6145eba5a906ad7","GREEN-00025","2014-08-02T16:13:19-0500",,"FEMALE","LEFT","2014-08-02T16:08:46-0500","Word Game",,"0","880","CONGRUENT","1","789.5679473876953","YELLOW","YELLOW"
"53dd5472b6145eba5a906ad7","GREEN-00025","2014-08-02T16:13:19-0500",,"FEMALE","LEFT","2014-08-02T16:08:46-0500","Word Game",,"1","870","CONGRUENT","0","N/A","N/A","RED"
"53dd5472b6145eba5a906ad7","GREEN-00025","2014-08-02T16:13:19-0500",,"FEMALE","LEFT","2014-08-02T16:08:46-0500","Word Game",,"0","960","INCONGRUENT","0","960","N/A","WHITE"
"53dd5472b6145eba5a906ad7","GREEN-00025","2014-08-02T16:13:19-0500",,"FEMALE","LEFT","2014-08-02T16:08:46-0500","Word Game",,"0","910","CONGRUENT","1","805.0310015678406","GREEN","GREEN"
"53dd5472b6145eba5a906ad7","GREEN-00025","2014-08-02T16:13:19-0500",,"FEMALE","LEFT","2014-08-02T16:08:46-0500","Word Game",,"0","760","NEUTRAL","1","710.5110287666321","YELLOW","YELLOW"
"53dd5472b6145eba5a906ad7","GREEN-00025","2014-08-02T16:13:19-0500",,"FEMALE","LEFT","2014-08-02T16:08:46-0500","Word Game",,"0","900","CONGRUENT","1","760.5560421943665","YELLOW","YELLOW"
"53dd5472b6145eba5a906ad7","GREEN-00025","2014-08-02T16:13:19-0500",,"FEMALE","LEFT","2014-08-02T16:08:46-0500","Word Game",,"0","750","NEUTRAL","1","693.8720345497131","RED","RED"
"53dd5472b6145eba5a906ad7","GREEN-00025","2014-08-02T16:13:19-0500",,"FEMALE","LEFT","2014-08-02T16:08:46-0500","Word Game",,"0","1120","INCONGRUENT","1","725.7319688796997","GREEN","GREEN"
"53dd5472b6145eba5a906ad7","GREEN-00025","2014-08-02T16:13:19-0500",,"FEMALE","LEFT","2014-08-02T16:08:46-0500","Word Game",,"0","1110","INCONGRUENT","1","1011.7489695549011","YELLOW","YELLOW"
"53dd5472b6145eba5a906ad7","GREEN-00025","2014-08-02T16:13:19-0500",,"FEMALE","LEFT","2014-08-02T16:08:46-0500","Word Game",,"1","1100","INCONGRUENT","0","N/A","N/A","WHITE"
"53dd5472b6145eba5a906ad7","GREEN-00025","2014-08-02T16:13:19-0500",,"FEMALE","LEFT","2014-08-02T16:08:46-0500","Word Game",,"1","740","NEUTRAL","0","N/A","N/A","YELLOW"
"53dd5472b6145eba5a906ad7","GREEN-00025","2014-08-02T16:13:19-0500",,"FEMALE","LEFT","2014-08-02T16:08:46-0500","Word Game",,"0","1140","INCONGRUENT","1","943.5989856719971","YELLOW","YELLOW"
"53dd5472b6145eba5a906ad7","GREEN-00025","2014-08-02T16:13:19-0500",,"FEMALE","LEFT","2014-08-02T16:08:46-0500","Word Game",,"1","1130","INCONGRUENT","0","N/A","N/A","YELLOW"
"53dd5472b6145eba5a906ad7","GREEN-00025","2014-08-02T16:13:19-0500",,"FEMALE","LEFT","2014-08-02T16:08:46-0500","Word Game",,"1","890","CONGRUENT","0","N/A","GREEN","GREEN"
"53dd5472b6145eba5a906ad7","GREEN-00025","2014-08-02T16:13:19-0500",,"FEMALE","LEFT","2014-08-02T16:08:46-0500","Word Game",,"1","930","CONGRUENT","0","N/A","YELLOW","YELLOW"
"53dd5472b6145eba5a906ad7","GREEN-00025","2014-08-02T16:13:19-0500",,"FEMALE","LEFT","2014-08-02T16:08:46-0500","Word Game",,"0","1170","INCONGRUENT","0","1170","N/A","YELLOW"
"53dd5472b6145eba5a906ad7","GREEN-00025","2014-08-02T16:13:19-0500",,"FEMALE","LEFT","2014-08-02T16:08:46-0500","Word Game",,"0","1210","INCONGRUENT","1","883.6759924888611","YELLOW","YELLOW"
"53dd5472b6145eba5a906ad7","GREEN-00025","2014-08-02T16:13:19-0500",,"FEMALE","LEFT","2014-08-02T16:08:46-0500","Word Game",,"0","970","CONGRUENT","1","901.3170003890991","RED","RED"
"53dd5472b6145eba5a906ad7","GREEN-00025","2014-08-02T16:13:19-0500",,"FEMALE","LEFT","2014-08-02T16:08:46-0500","Word Game",,"0","960","CONGRUENT","1","825.9350061416626","GREEN","GREEN"
"53dd5472b6145eba5a906ad7","GREEN-00025","2014-08-02T16:13:19-0500",,"FEMALE","LEFT","2014-08-02T16:08:46-0500","Word Game",,"0","950","CONGRUENT","1","827.2950053215027","YELLOW","YELLOW"
"53dd5472b6145eba5a906ad7","GREEN-00025","2014-08-02T16:13:19-0500",,"FEMALE","LEFT","2014-08-02T16:08:46-0500","Word Game",,"0","1200","INCONGRUENT","1","675.0310063362122","YELLOW","YELLOW"
"53dd5472b6145eba5a906ad7","GREEN-00025","2014-08-02T16:13:19-0500",,"FEMALE","LEFT","2014-08-02T16:08:46-0500","Word Game",,"0","930","CONGRUENT","1","842.2489762306213","GREEN","GREEN"
"53dd5472b6145eba5a906ad7","GREEN-00025","2014-08-02T16:13:19-0500",,"FEMALE","LEFT","2014-08-02T16:08:46-0500","Word Game",,"0","890","CONGRUENT","1","793.2549715042114","YELLOW","YELLOW"
"53dd5472b6145eba5a906ad7","GREEN-00025","2014-08-02T16:13:19-0500",,"FEMALE","LEFT","2014-08-02T16:08:46-0500","Word Game",,"0","1190","INCONGRUENT","1","824.8879909515381","YELLOW","YELLOW"
"53dd5472b6145eba5a906ad7","GREEN-00025","2014-08-02T16:13:19-0500",,"FEMALE","LEFT","2014-08-02T16:08:46-0500","Word Game",,"0","810","CONGRUENT","1","707.8239917755127","WHITE","WHITE"
"53dd5472b6145eba5a906ad7","GREEN-00025","2014-08-02T16:13:19-0500",,"FEMALE","LEFT","2014-08-02T16:08:46-0500","Word Game",,"1","650","CONGRUENT","0","N/A","GREEN","GREEN"
"53dd5472b6145eba5a906ad7","GREEN-00025","2014-08-02T16:13:19-0500",,"FEMALE","LEFT","2014-08-02T16:08:46-0500","Word Game",,"0","1170","INCONGRUENT","1","708.5790038108826","GREEN","GREEN"
"53dd5472b6145eba5a906ad7","GREEN-00025","2014-08-02T16:13:19-0500",,"FEMALE","LEFT","2014-08-02T16:08:46-0500","Word Game",,"0","780","NEUTRAL","1","591.7049646377563","GREEN","GREEN"
"53dd5472b6145eba5a906ad7","GREEN-00025","2014-08-02T16:13:19-0500",,"FEMALE","LEFT","2014-08-02T16:08:46-0500","Word Game",,"0","770","NEUTRAL","1","674.3009686470032","RED","RED"
"53dd5472b6145eba5a906ad7","GREEN-00025","2014-08-02T16:13:19-0500",,"FEMALE","LEFT","2014-08-02T16:08:46-0500","Word Game",,"1","760","NEUTRAL","0","N/A","YELLOW","YELLOW"
"53dd5472b6145eba5a906ad7","GREEN-00025","2014-08-02T16:13:19-0500",,"FEMALE","LEFT","2014-08-02T16:08:46-0500","Word Game",,"0","1130","INCONGRUENT","1","640.8699750900269","YELLOW","YELLOW"
"53dd5472b6145eba5a906ad7","GREEN-00025","2014-08-02T16:13:19-0500",,"FEMALE","LEFT","2014-08-02T16:08:46-0500","Word Game",,"0","800","NEUTRAL","1","672.4900007247925","WHITE","WHITE"
"53dd5472b6145eba5a906ad7","GREEN-00025","2014-08-02T16:13:19-0500",,"FEMALE","LEFT","2014-08-02T16:08:46-0500","Word Game",,"1","1050","INCONGRUENT","0","N/A","GREEN","GREEN"
"53dd5472b6145eba5a906ad7","GREEN-00025","2014-08-02T16:13:19-0500",,"FEMALE","LEFT","2014-08-02T16:08:46-0500","Word Game",,"1","790","NEUTRAL","0","N/A","YELLOW","YELLOW"
"53dd5472b6145eba5a906ad7","GREEN-00025","2014-08-02T16:13:19-0500",,"FEMALE","LEFT","2014-08-02T16:08:46-0500","Word Game",,"0","830","NEUTRAL","1","822.5120306015015","YELLOW","YELLOW"
"53dd5472b6145eba5a906ad7","GREEN-00025","2014-08-02T16:13:19-0500",,"FEMALE","LEFT","2014-08-02T16:08:46-0500","Word Game",,"0","1090","INCONGRUENT","1","721.4820384979248","GREEN","GREEN"
"53dd5472b6145eba5a906ad7","GREEN-00025","2014-08-02T16:13:19-0500",,"FEMALE","LEFT","2014-08-02T16:08:46-0500","Word Game",,"0","1080","INCONGRUENT","1","955.1969766616821","WHITE","WHITE"
"53dd5472b6145eba5a906ad7","GREEN-00025","2014-08-02T16:13:19-0500",,"FEMALE","LEFT","2014-08-02T16:08:46-0500","Word Game",,"1","820","NEUTRAL","0","N/A","RED","RED"
"53dd5472b6145eba5a906ad7","GREEN-00025","2014-08-02T16:13:19-0500",,"FEMALE","LEFT","2014-08-02T16:08:46-0500","Word Game",,"0","860","NEUTRAL","1","805.6170344352722","WHITE","WHITE"
"53dd5472b6145eba5a906ad7","GREEN-00025","2014-08-02T16:13:19-0500",,"FEMALE","LEFT","2014-08-02T16:08:46-0500","Word Game",,"0","850","NEUTRAL","1","840.4819965362549","RED","RED"
"53dd5472b6145eba5a906ad7","GREEN-00025","2014-08-02T16:13:19-0500",,"FEMALE","LEFT","2014-08-02T16:08:46-0500","Word Game",,"1","690","CONGRUENT","0","N/A","WHITE","WHITE"
"53dd5472b6145eba5a906ad7","GREEN-00025","2014-08-02T16:13:19-0500",,"FEMALE","LEFT","2014-08-02T16:08:46-0500","Word Game",,"1","730","CONGRUENT","0","N/A","WHITE","WHITE"
"53dd5472b6145eba5a906ad7","GREEN-00025","2014-08-02T16:13:19-0500",,"FEMALE","LEFT","2014-08-02T16:08:46-0500","Word Game",,"0","840","NEUTRAL","1","639.7519707679749","WHITE","WHITE"
"53dd5472b6145eba5a906ad7","GREEN-00025","2014-08-02T16:13:19-0500",,"FEMALE","LEFT","2014-08-02T16:08:46-0500","Word Game",,"0","1070","INCONGRUENT","1","923.1879711151123","YELLOW","YELLOW"
"53dd5472b6145eba5a906ad7","GREEN-00025","2014-08-02T16:13:19-0500",,"FEMALE","LEFT","2014-08-02T16:08:46-0500","Word Game",,"1","1050","INCONGRUENT","0","N/A","N/A","WHITE"
"53dd5472b6145eba5a906ad7","GREEN-00025","2014-08-02T16:13:19-0500",,"FEMALE","LEFT","2014-08-02T16:08:46-0500","Word Game",,"1","820","NEUTRAL","0","N/A","GREEN","GREEN"
"53dd5472b6145eba5a906ad7","GREEN-00025","2014-08-02T16:13:19-0500",,"FEMALE","LEFT","2014-08-02T16:08:46-0500","Word Game",,"1","860","NEUTRAL","0","N/A","WHITE","WHITE"
"53dd5472b6145eba5a906ad7","GREEN-00025","2014-08-02T16:13:19-0500",,"FEMALE","LEFT","2014-08-02T16:08:46-0500","Word Game",,"0","810","CONGRUENT","1","788.7969613075256","RED","RED"
"53dd5472b6145eba5a906ad7","GREEN-00025","2014-08-02T16:13:19-0500",,"FEMALE","LEFT","2014-08-02T16:08:46-0500","Word Game",,"0","800","CONGRUENT","1","771.6630101203918","RED","RED"
"53dd5472b6145eba5a906ad7","GREEN-00025","2014-08-02T16:13:19-0500",,"FEMALE","LEFT","2014-08-02T16:08:46-0500","Word Game",,"1","1090","INCONGRUENT","0","N/A","N/A","YELLOW"
"53dd5472b6145eba5a906ad7","GREEN-00025","2014-08-02T16:13:19-0500",,"FEMALE","LEFT","2014-08-02T16:08:46-0500","Word Game",,"0","1130","INCONGRUENT","1","867.2020435333252","WHITE","WHITE"
"53dd5472b6145eba5a906ad7","GREEN-00025","2014-08-02T16:13:19-0500",,"FEMALE","LEFT","2014-08-02T16:08:46-0500","Word Game",,"1","900","NEUTRAL","0","N/A","GREEN","GREEN"
"53dd5472b6145eba5a906ad7","GREEN-00025","2014-08-02T16:13:19-0500",,"FEMALE","LEFT","2014-08-02T16:08:46-0500","Word Game",,"0","980","NEUTRAL","1","636.2929940223694","GREEN","GREEN"
"53dd5472b6145eba5a906ad7","GREEN-00025","2014-08-02T16:13:19-0500",,"FEMALE","LEFT","2014-08-02T16:08:46-0500","Word Game",,"0","970","NEUTRAL","1","870.6279993057251","WHITE","WHITE"
"53dd5472b6145eba5a906ad7","GREEN-00025","2014-08-02T16:13:19-0500",,"FEMALE","LEFT","2014-08-02T16:08:46-0500","Word Game",,"0","790","CONGRUENT","1","770.1459527015686","RED","RED"
"53dd5472b6145eba5a906ad7","GREEN-00025","2014-08-02T16:13:19-0500",,"FEMALE","LEFT","2014-08-02T16:08:46-0500","Word Game",,"0","1120","INCONGRUENT","1","936.5339875221252","GREEN","GREEN"
"53dd5472b6145eba5a906ad7","GREEN-00025","2014-08-02T16:13:19-0500",,"FEMALE","LEFT","2014-08-02T16:08:46-0500","Word Game",,"0","960","NEUTRAL","1","786.5469455718994","WHITE","WHITE"
"53dd5472b6145eba5a906ad7","GREEN-00025","2014-08-02T16:13:19-0500",,"FEMALE","LEFT","2014-08-02T16:08:46-0500","Word Game",,"0","1110","INCONGRUENT","1","852.2260189056396","YELLOW","YELLOW"
"53dd5472b6145eba5a906ad7","GREEN-00025","2014-08-02T16:13:19-0500",,"FEMALE","LEFT","2014-08-02T16:08:46-0500","Word Game",,"0","940","NEUTRAL","1","819.7720050811768","YELLOW","YELLOW"
"53dd5472b6145eba5a906ad7","GREEN-00025","2014-08-02T16:13:19-0500",,"FEMALE","LEFT","2014-08-02T16:08:46-0500","Word Game",,"0","1090","INCONGRUENT","1","1021.0860371589661","WHITE","WHITE"
"53dd5472b6145eba5a906ad7","GREEN-00025","2014-08-02T16:13:19-0500",,"FEMALE","LEFT","2014-08-02T16:08:46-0500","Word Game",,"1","770","CONGRUENT","0","N/A","RED","RED"
"53dffa79b6145e634a0923a0","GREEN-00022","2014-08-04T14:26:15-0700",,"FEMALE","RIGHT","2014-08-04T14:22:10-0700","Word Game",,"0","800","NEUTRAL","1","563.431978225708","YELLOW","YELLOW"
"53dffa79b6145e634a0923a0","GREEN-00022","2014-08-04T14:26:15-0700",,"FEMALE","RIGHT","2014-08-04T14:22:10-0700","Word Game",,"0","800","CONGRUENT","1","533.7240099906921","WHITE","WHITE"
"53dffa79b6145e634a0923a0","GREEN-00022","2014-08-04T14:26:15-0700",,"FEMALE","RIGHT","2014-08-04T14:22:10-0700","Word Game",,"0","800","INCONGRUENT","1","604.4790148735046","WHITE","WHITE"
"53dffa79b6145e634a0923a0","GREEN-00022","2014-08-04T14:26:15-0700",,"FEMALE","RIGHT","2014-08-04T14:22:10-0700","Word Game",,"0","790","NEUTRAL","1","486.473023891449","YELLOW","YELLOW"
"53dffa79b6145e634a0923a0","GREEN-00022","2014-08-04T14:26:15-0700",,"FEMALE","RIGHT","2014-08-04T14:22:10-0700","Word Game",,"0","790","CONGRUENT","1","780.2550196647644","RED","RED"
"53dffa79b6145e634a0923a0","GREEN-00022","2014-08-04T14:26:15-0700",,"FEMALE","RIGHT","2014-08-04T14:22:10-0700","Word Game",,"0","780","CONGRUENT","1","644.182026386261","RED","RED"
"53dffa79b6145e634a0923a0","GREEN-00022","2014-08-04T14:26:15-0700",,"FEMALE","RIGHT","2014-08-04T14:22:10-0700","Word Game",,"0","790","INCONGRUENT","1","626.8550157546997","YELLOW","YELLOW"
"53dffa79b6145e634a0923a0","GREEN-00022","2014-08-04T14:26:15-0700",,"FEMALE","RIGHT","2014-08-04T14:22:10-0700","Word Game",,"0","780","NEUTRAL","1","526.5139937400818","YELLOW","YELLOW"
"53dffa79b6145e634a0923a0","GREEN-00022","2014-08-04T14:26:15-0700",,"FEMALE","RIGHT","2014-08-04T14:22:10-0700","Word Game",,"0","760","CONGRUENT","1","642.6289677619934","GREEN","GREEN"
"53dffa79b6145e634a0923a0","GREEN-00022","2014-08-04T14:26:15-0700",,"FEMALE","RIGHT","2014-08-04T14:22:10-0700","Word Game",,"1","760","NEUTRAL","0","N/A","N/A","WHITE"
"53dffa79b6145e634a0923a0","GREEN-00022","2014-08-04T14:26:15-0700",,"FEMALE","RIGHT","2014-08-04T14:22:10-0700","Word Game",,"0","720","CONGRUENT","1","606.9989800453186","YELLOW","YELLOW"
"53dffa79b6145e634a0923a0","GREEN-00022","2014-08-04T14:26:15-0700",,"FEMALE","RIGHT","2014-08-04T14:22:10-0700","Word Game",,"0","640","CONGRUENT","1","626.2840032577515","YELLOW","YELLOW"
"53dffa79b6145e634a0923a0","GREEN-00022","2014-08-04T14:26:15-0700",,"FEMALE","RIGHT","2014-08-04T14:22:10-0700","Word Game",,"1","480","CONGRUENT","0","N/A","YELLOW","YELLOW"
"53dffa79b6145e634a0923a0","GREEN-00022","2014-08-04T14:26:15-0700",,"FEMALE","RIGHT","2014-08-04T14:22:10-0700","Word Game",,"0","780","INCONGRUENT","1","691.7960047721863","GREEN","GREEN"
"53dffa79b6145e634a0923a0","GREEN-00022","2014-08-04T14:26:15-0700",,"FEMALE","RIGHT","2014-08-04T14:22:10-0700","Word Game",,"0","800","NEUTRAL","1","644.6490287780762","GREEN","GREEN"
"53dffa79b6145e634a0923a0","GREEN-00022","2014-08-04T14:26:15-0700",,"FEMALE","RIGHT","2014-08-04T14:22:10-0700","Word Game",,"0","760","INCONGRUENT","1","727.249026298523","YELLOW","YELLOW"
"53dffa79b6145e634a0923a0","GREEN-00022","2014-08-04T14:26:15-0700",,"FEMALE","RIGHT","2014-08-04T14:22:10-0700","Word Game",,"0","790","NEUTRAL","1","758.8040232658386","WHITE","WHITE"
"53dffa79b6145e634a0923a0","GREEN-00022","2014-08-04T14:26:15-0700",,"FEMALE","RIGHT","2014-08-04T14:22:10-0700","Word Game",,"0","780","NEUTRAL","1","552.5479912757874","RED","RED"
"53dffa79b6145e634a0923a0","GREEN-00022","2014-08-04T14:26:15-0700",,"FEMALE","RIGHT","2014-08-04T14:22:10-0700","Word Game",,"0","760","NEUTRAL","0","726.9230484962463","RED","GREEN"
"53dffa79b6145e634a0923a0","GREEN-00022","2014-08-04T14:26:15-0700",,"FEMALE","RIGHT","2014-08-04T14:22:10-0700","Word Game",,"1","720","INCONGRUENT","0","N/A","N/A","YELLOW"
"53dffa79b6145e634a0923a0","GREEN-00022","2014-08-04T14:26:15-0700",,"FEMALE","RIGHT","2014-08-04T14:22:10-0700","Word Game",,"0","800","NEUTRAL","1","735.3289723396301","YELLOW","YELLOW"
"53dffa79b6145e634a0923a0","GREEN-00022","2014-08-04T14:26:15-0700",,"FEMALE","RIGHT","2014-08-04T14:22:10-0700","Word Game",,"0","790","NEUTRAL","1","594.1920280456543","WHITE","WHITE"
"53dffa79b6145e634a0923a0","GREEN-00022","2014-08-04T14:26:15-0700",,"FEMALE","RIGHT","2014-08-04T14:22:10-0700","Word Game",,"1","520","CONGRUENT","0","N/A","RED","RED"
"53dffa79b6145e634a0923a0","GREEN-00022","2014-08-04T14:26:15-0700",,"FEMALE","RIGHT","2014-08-04T14:22:10-0700","Word Game",,"1","760","INCONGRUENT","0","N/A","WHITE","WHITE"
"53dffa79b6145e634a0923a0","GREEN-00022","2014-08-04T14:26:15-0700",,"FEMALE","RIGHT","2014-08-04T14:22:10-0700","Word Game",,"0","560","CONGRUENT","1","559.9769949913025","WHITE","WHITE"
"53dffa79b6145e634a0923a0","GREEN-00022","2014-08-04T14:26:15-0700",,"FEMALE","RIGHT","2014-08-04T14:22:10-0700","Word Game",,"0","800","INCONGRUENT","1","626.908004283905","WHITE","WHITE"
"53dffa79b6145e634a0923a0","GREEN-00022","2014-08-04T14:26:15-0700",,"FEMALE","RIGHT","2014-08-04T14:22:10-0700","Word Game",,"1","550","CONGRUENT","0","N/A","YELLOW","YELLOW"
"53dffa79b6145e634a0923a0","GREEN-00022","2014-08-04T14:26:15-0700",,"FEMALE","RIGHT","2014-08-04T14:22:10-0700","Word Game",,"0","790","INCONGRUENT","1","526.5809893608093","YELLOW","YELLOW"
"53dffa79b6145e634a0923a0","GREEN-00022","2014-08-04T14:26:15-0700",,"FEMALE","RIGHT","2014-08-04T14:22:10-0700","Word Game",,"1","590","CONGRUENT","0","N/A","WHITE","WHITE"
"53dffa79b6145e634a0923a0","GREEN-00022","2014-08-04T14:26:15-0700",,"FEMALE","RIGHT","2014-08-04T14:22:10-0700","Word Game",,"1","780","NEUTRAL","0","N/A","N/A","RED"
"53dffa79b6145e634a0923a0","GREEN-00022","2014-08-04T14:26:15-0700",,"FEMALE","RIGHT","2014-08-04T14:22:10-0700","Word Game",,"0","820","NEUTRAL","1","638.2989883422852","RED","RED"
"53dffa79b6145e634a0923a0","GREEN-00022","2014-08-04T14:26:15-0700",,"FEMALE","RIGHT","2014-08-04T14:22:10-0700","Word Game",,"0","780","INCONGRUENT","1","694.4620013237","GREEN","GREEN"
"53dffa79b6145e634a0923a0","GREEN-00022","2014-08-04T14:26:15-0700",,"FEMALE","RIGHT","2014-08-04T14:22:10-0700","Word Game",,"0","760","INCONGRUENT","1","602.9170155525208","YELLOW","YELLOW"
"53dffa79b6145e634a0923a0","GREEN-00022","2014-08-04T14:26:15-0700",,"FEMALE","RIGHT","2014-08-04T14:22:10-0700","Word Game",,"1","810","NEUTRAL","0","N/A","N/A","RED"
"53dffa79b6145e634a0923a0","GREEN-00022","2014-08-04T14:26:15-0700",,"FEMALE","RIGHT","2014-08-04T14:22:10-0700","Word Game",,"0","850","NEUTRAL","1","847.6699590682983","GREEN","GREEN"
"53dffa79b6145e634a0923a0","GREEN-00022","2014-08-04T14:26:15-0700",,"FEMALE","RIGHT","2014-08-04T14:22:10-0700","Word Game",,"0","720","INCONGRUENT","1","658.1439971923828","WHITE","WHITE"
"53dffa79b6145e634a0923a0","GREEN-00022","2014-08-04T14:26:15-0700",,"FEMALE","RIGHT","2014-08-04T14:22:10-0700","Word Game",,"1","630","CONGRUENT","0","N/A","RED","RED"
"53dffa79b6145e634a0923a0","GREEN-00022","2014-08-04T14:26:15-0700",,"FEMALE","RIGHT","2014-08-04T14:22:10-0700","Word Game",,"1","640","INCONGRUENT","0","N/A","YELLOW","YELLOW"
"53dffa79b6145e634a0923a0","GREEN-00022","2014-08-04T14:26:15-0700",,"FEMALE","RIGHT","2014-08-04T14:22:10-0700","Word Game",,"0","680","INCONGRUENT","1","591.2779569625854","GREEN","GREEN"
"53dffa79b6145e634a0923a0","GREEN-00022","2014-08-04T14:26:15-0700",,"FEMALE","RIGHT","2014-08-04T14:22:10-0700","Word Game",,"0","710","CONGRUENT","1","623.2950091362","RED","RED"
"53dffa79b6145e634a0923a0","GREEN-00022","2014-08-04T14:26:15-0700",,"FEMALE","RIGHT","2014-08-04T14:22:10-0700","Word Game",,"0","840","NEUTRAL","0","539.9379730224609","RED","GREEN"
"53dffa79b6145e634a0923a0","GREEN-00022","2014-08-04T14:26:15-0700",,"FEMALE","RIGHT","2014-08-04T14:22:10-0700","Word Game",,"1","700","CONGRUENT","0","N/A","N/A","YELLOW"
"53dffa79b6145e634a0923a0","GREEN-00022","2014-08-04T14:26:15-0700",,"FEMALE","RIGHT","2014-08-04T14:22:10-0700","Word Game",,"0","670","INCONGRUENT","1","580.1949501037598","YELLOW","YELLOW"
"53dffa79b6145e634a0923a0","GREEN-00022","2014-08-04T14:26:15-0700",,"FEMALE","RIGHT","2014-08-04T14:22:10-0700","Word Game",,"0","740","CONGRUENT","1","706.9560289382935","RED","RED"
"53dffa79b6145e634a0923a0","GREEN-00022","2014-08-04T14:26:15-0700",,"FEMALE","RIGHT","2014-08-04T14:22:10-0700","Word Game",,"0","730","CONGRUENT","1","687.0320439338684","WHITE","WHITE"
"53dffa79b6145e634a0923a0","GREEN-00022","2014-08-04T14:26:15-0700",,"FEMALE","RIGHT","2014-08-04T14:22:10-0700","Word Game",,"0","660","INCONGRUENT","1","657.0129990577698","YELLOW","YELLOW"
"53dffa79b6145e634a0923a0","GREEN-00022","2014-08-04T14:26:15-0700",,"FEMALE","RIGHT","2014-08-04T14:22:10-0700","Word Game",,"1","640","INCONGRUENT","0","N/A","N/A","YELLOW"
"53dffa79b6145e634a0923a0","GREEN-00022","2014-08-04T14:26:15-0700",,"FEMALE","RIGHT","2014-08-04T14:22:10-0700","Word Game",,"0","880","NEUTRAL","1","540.2420163154602","YELLOW","YELLOW"
"53dffa79b6145e634a0923a0","GREEN-00022","2014-08-04T14:26:15-0700",,"FEMALE","RIGHT","2014-08-04T14:22:10-0700","Word Game",,"1","680","INCONGRUENT","0","N/A","GREEN","GREEN"
"53dffa79b6145e634a0923a0","GREEN-00022","2014-08-04T14:26:15-0700",,"FEMALE","RIGHT","2014-08-04T14:22:10-0700","Word Game",,"0","720","CONGRUENT","1","660.6280207633972","WHITE","WHITE"
"53dffa79b6145e634a0923a0","GREEN-00022","2014-08-04T14:26:15-0700",,"FEMALE","RIGHT","2014-08-04T14:22:10-0700","Word Game",,"0","720","INCONGRUENT","1","653.1829833984375","YELLOW","YELLOW"
"53dffa79b6145e634a0923a0","GREEN-00022","2014-08-04T14:26:15-0700",,"FEMALE","RIGHT","2014-08-04T14:22:10-0700","Word Game",,"0","870","NEUTRAL","1","869.3919777870178","YELLOW","YELLOW"
"53dffa79b6145e634a0923a0","GREEN-00022","2014-08-04T14:26:15-0700",,"FEMALE","RIGHT","2014-08-04T14:22:10-0700","Word Game",,"0","860","NEUTRAL","1","709.4009518623352","WHITE","WHITE"
"53dffa79b6145e634a0923a0","GREEN-00022","2014-08-04T14:26:15-0700",,"FEMALE","RIGHT","2014-08-04T14:22:10-0700","Word Game",,"1","700","CONGRUENT","0","N/A","GREEN","GREEN"
"53dffa79b6145e634a0923a0","GREEN-00022","2014-08-04T14:26:15-0700",,"FEMALE","RIGHT","2014-08-04T14:22:10-0700","Word Game",,"0","710","INCONGRUENT","1","670.2879667282104","WHITE","WHITE"
"53dffa79b6145e634a0923a0","GREEN-00022","2014-08-04T14:26:15-0700",,"FEMALE","RIGHT","2014-08-04T14:22:10-0700","Word Game",,"1","700","INCONGRUENT","0","N/A","WHITE","WHITE"
"53dffa79b6145e634a0923a0","GREEN-00022","2014-08-04T14:26:15-0700",,"FEMALE","RIGHT","2014-08-04T14:22:10-0700","Word Game",,"1","740","INCONGRUENT","0","N/A","N/A","GREEN"
"53dffa79b6145e634a0923a0","GREEN-00022","2014-08-04T14:26:15-0700",,"FEMALE","RIGHT","2014-08-04T14:22:10-0700","Word Game",,"1","840","NEUTRAL","0","N/A","N/A","GREEN"
"53dffa79b6145e634a0923a0","GREEN-00022","2014-08-04T14:26:15-0700",,"FEMALE","RIGHT","2014-08-04T14:22:10-0700","Word Game",,"0","880","NEUTRAL","1","767.9370045661926","RED","RED"
"53dffa79b6145e634a0923a0","GREEN-00022","2014-08-04T14:26:15-0700",,"FEMALE","RIGHT","2014-08-04T14:22:10-0700","Word Game",,"0","740","CONGRUENT","1","621.6780543327332","WHITE","WHITE"
"53dffa79b6145e634a0923a0","GREEN-00022","2014-08-04T14:26:15-0700",,"FEMALE","RIGHT","2014-08-04T14:22:10-0700","Word Game",,"1","730","CONGRUENT","0","N/A","GREEN","GREEN"
"53dffa79b6145e634a0923a0","GREEN-00022","2014-08-04T14:26:15-0700",,"FEMALE","RIGHT","2014-08-04T14:22:10-0700","Word Game",,"0","770","CONGRUENT","1","652.6049971580505","YELLOW","YELLOW"
"53dffa79b6145e634a0923a0","GREEN-00022","2014-08-04T14:26:15-0700",,"FEMALE","RIGHT","2014-08-04T14:22:10-0700","Word Game",,"0","760","CONGRUENT","0","683.0379962921143","YELLOW","GREEN"
"53dffa79b6145e634a0923a0","GREEN-00022","2014-08-04T14:26:15-0700",,"FEMALE","RIGHT","2014-08-04T14:22:10-0700","Word Game",,"0","870","NEUTRAL","1","867.1489953994751","RED","RED"
"53dffa79b6145e634a0923a0","GREEN-00022","2014-08-04T14:26:15-0700",,"FEMALE","RIGHT","2014-08-04T14:22:10-0700","Word Game",,"0","860","NEUTRAL","1","620.55903673172","GREEN","GREEN"
"53dffa79b6145e634a0923a0","GREEN-00022","2014-08-04T14:26:15-0700",,"FEMALE","RIGHT","2014-08-04T14:22:10-0700","Word Game",,"0","800","CONGRUENT","1","653.1149744987488","GREEN","GREEN"
"53dffa79b6145e634a0923a0","GREEN-00022","2014-08-04T14:26:15-0700",,"FEMALE","RIGHT","2014-08-04T14:22:10-0700","Word Game",,"0","840","NEUTRAL","1","575.9479999542236","WHITE","WHITE"
"53dffa79b6145e634a0923a0","GREEN-00022","2014-08-04T14:26:15-0700",,"FEMALE","RIGHT","2014-08-04T14:22:10-0700","Word Game",,"0","800","NEUTRAL","1","558.3840012550354","WHITE","WHITE"
"53dffa79b6145e634a0923a0","GREEN-00022","2014-08-04T14:26:15-0700",,"FEMALE","RIGHT","2014-08-04T14:22:10-0700","Word Game",,"0","780","INCONGRUENT","1","723.1680154800415","GREEN","GREEN"
"53dffa79b6145e634a0923a0","GREEN-00022","2014-08-04T14:26:15-0700",,"FEMALE","RIGHT","2014-08-04T14:22:10-0700","Word Game",,"1","770","INCONGRUENT","0","N/A","YELLOW","YELLOW"
"53dffa79b6145e634a0923a0","GREEN-00022","2014-08-04T14:26:15-0700",,"FEMALE","RIGHT","2014-08-04T14:22:10-0700","Word Game",,"0","810","INCONGRUENT","1","559.067964553833","YELLOW","YELLOW"
"53dffa79b6145e634a0923a0","GREEN-00022","2014-08-04T14:26:15-0700",,"FEMALE","RIGHT","2014-08-04T14:22:10-0700","Word Game",,"0","720","NEUTRAL","1","560.247004032135","WHITE","WHITE"
"53dffa79b6145e634a0923a0","GREEN-00022","2014-08-04T14:26:15-0700",,"FEMALE","RIGHT","2014-08-04T14:22:10-0700","Word Game",,"0","800","INCONGRUENT","1","787.2129678726196","YELLOW","YELLOW"
"53dffa79b6145e634a0923a0","GREEN-00022","2014-08-04T14:26:15-0700",,"FEMALE","RIGHT","2014-08-04T14:22:10-0700","Word Game",,"0","790","CONGRUENT","1","670.3119874000549","GREEN","GREEN"
"53dffa79b6145e634a0923a0","GREEN-00022","2014-08-04T14:26:15-0700",,"FEMALE","RIGHT","2014-08-04T14:22:10-0700","Word Game",,"0","780","CONGRUENT","1","626.9829869270325","RED","RED"
"53e12b25b6145e97400923a1","BLUE-00051","2014-08-05T15:06:11-0400",,"FEMALE","LEFT","2014-08-05T15:01:42-0400","Word Game",,"0","800","CONGRUENT","1","697.6609826087952","YELLOW","YELLOW"
"53e12b25b6145e97400923a1","BLUE-00051","2014-08-05T15:06:11-0400",,"FEMALE","LEFT","2014-08-05T15:01:42-0400","Word Game",,"0","790","CONGRUENT","1","589.739978313446","YELLOW","YELLOW"
"53e12b25b6145e97400923a1","BLUE-00051","2014-08-05T15:06:11-0400",,"FEMALE","LEFT","2014-08-05T15:01:42-0400","Word Game",,"0","800","NEUTRAL","0","800","N/A","RED"
"53e12b25b6145e97400923a1","BLUE-00051","2014-08-05T15:06:11-0400",,"FEMALE","LEFT","2014-08-05T15:01:42-0400","Word Game",,"0","840","NEUTRAL","0","840","N/A","GREEN"
"53e12b25b6145e97400923a1","BLUE-00051","2014-08-05T15:06:11-0400",,"FEMALE","LEFT","2014-08-05T15:01:42-0400","Word Game",,"0","880","NEUTRAL","1","724.8519659042358","RED","RED"
"53e12b25b6145e97400923a1","BLUE-00051","2014-08-05T15:06:11-0400",,"FEMALE","LEFT","2014-08-05T15:01:42-0400","Word Game",,"1","800","INCONGRUENT","0","N/A","GREEN","GREEN"
"53e12b25b6145e97400923a1","BLUE-00051","2014-08-05T15:06:11-0400",,"FEMALE","LEFT","2014-08-05T15:01:42-0400","Word Game",,"0","840","INCONGRUENT","1","590.1489853858948","WHITE","WHITE"
"53e12b25b6145e97400923a1","BLUE-00051","2014-08-05T15:06:11-0400",,"FEMALE","LEFT","2014-08-05T15:01:42-0400","Word Game",,"0","870","NEUTRAL","1","656.6200256347656","WHITE","WHITE"
"53e12b25b6145e97400923a1","BLUE-00051","2014-08-05T15:06:11-0400",,"FEMALE","LEFT","2014-08-05T15:01:42-0400","Word Game",,"0","860","NEUTRAL","1","605.226993560791","YELLOW","YELLOW"
"53e12b25b6145e97400923a1","BLUE-00051","2014-08-05T15:06:11-0400",,"FEMALE","LEFT","2014-08-05T15:01:42-0400","Word Game",,"0","780","CONGRUENT","1","622.448980808258","RED","RED"
"53e12b25b6145e97400923a1","BLUE-00051","2014-08-05T15:06:11-0400",,"FEMALE","LEFT","2014-08-05T15:01:42-0400","Word Game",,"0","840","NEUTRAL","1","788.785994052887","RED","RED"
"53e12b25b6145e97400923a1","BLUE-00051","2014-08-05T15:06:11-0400",,"FEMALE","LEFT","2014-08-05T15:01:42-0400","Word Game",,"0","830","INCONGRUENT","1","755.2630305290222","GREEN","GREEN"
"53e12b25b6145e97400923a1","BLUE-00051","2014-08-05T15:06:11-0400",,"FEMALE","LEFT","2014-08-05T15:01:42-0400","Word Game",,"0","760","CONGRUENT","1","721.8719720840454","GREEN","GREEN"
"53e12b25b6145e97400923a1","BLUE-00051","2014-08-05T15:06:11-0400",,"FEMALE","LEFT","2014-08-05T15:01:42-0400","Word Game",,"0","720","CONGRUENT","1","688.9750361442566","YELLOW","YELLOW"
"53e12b25b6145e97400923a1","BLUE-00051","2014-08-05T15:06:11-0400",,"FEMALE","LEFT","2014-08-05T15:01:42-0400","Word Game",,"0","640","CONGRUENT","1","621.355950832367","WHITE","WHITE"
"53e12b25b6145e97400923a1","BLUE-00051","2014-08-05T15:06:11-0400",,"FEMALE","LEFT","2014-08-05T15:01:42-0400","Word Game",,"0","820","INCONGRUENT","1","771.7030048370361","GREEN","GREEN"
"53e12b25b6145e97400923a1","BLUE-00051","2014-08-05T15:06:11-0400",,"FEMALE","LEFT","2014-08-05T15:01:42-0400","Word Game",,"1","480","CONGRUENT","0","N/A","GREEN","GREEN"
"53e12b25b6145e97400923a1","BLUE-00051","2014-08-05T15:06:11-0400",,"FEMALE","LEFT","2014-08-05T15:01:42-0400","Word Game",,"1","520","CONGRUENT","0","N/A","GREEN","GREEN"
"53e12b25b6145e97400923a1","BLUE-00051","2014-08-05T15:06:11-0400",,"FEMALE","LEFT","2014-08-05T15:01:42-0400","Word Game",,"1","560","CONGRUENT","0","N/A","GREEN","GREEN"
"53e12b25b6145e97400923a1","BLUE-00051","2014-08-05T15:06:11-0400",,"FEMALE","LEFT","2014-08-05T15:01:42-0400","Word Game",,"1","640","CONGRUENT","0","N/A","N/A","RED"
"53e12b25b6145e97400923a1","BLUE-00051","2014-08-05T15:06:11-0400",,"FEMALE","LEFT","2014-08-05T15:01:42-0400","Word Game",,"1","800","NEUTRAL","0","N/A","YELLOW","YELLOW"
"53e12b25b6145e97400923a1","BLUE-00051","2014-08-05T15:06:11-0400",,"FEMALE","LEFT","2014-08-05T15:01:42-0400","Word Game",,"0","800","INCONGRUENT","1","568.822979927063","YELLOW","YELLOW"
"53e12b25b6145e97400923a1","BLUE-00051","2014-08-05T15:06:11-0400",,"FEMALE","LEFT","2014-08-05T15:01:42-0400","Word Game",,"0","840","NEUTRAL","1","818.1700110435486","RED","RED"
"53e12b25b6145e97400923a1","BLUE-00051","2014-08-05T15:06:11-0400",,"FEMALE","LEFT","2014-08-05T15:01:42-0400","Word Game",,"1","830","NEUTRAL","0","N/A","GREEN","GREEN"
"53e12b25b6145e97400923a1","BLUE-00051","2014-08-05T15:06:11-0400",,"FEMALE","LEFT","2014-08-05T15:01:42-0400","Word Game",,"1","760","INCONGRUENT","0","N/A","YELLOW","YELLOW"
"53e12b25b6145e97400923a1","BLUE-00051","2014-08-05T15:06:11-0400",,"FEMALE","LEFT","2014-08-05T15:01:42-0400","Word Game",,"0","870","NEUTRAL","1","785.4959964752197","WHITE","WHITE"
"53e12b25b6145e97400923a1","BLUE-00051","2014-08-05T15:06:11-0400",,"FEMALE","LEFT","2014-08-05T15:01:42-0400","Word Game",,"0","860","NEUTRAL","1","602.6380062103271","WHITE","WHITE"
"53e12b25b6145e97400923a1","BLUE-00051","2014-08-05T15:06:11-0400",,"FEMALE","LEFT","2014-08-05T15:01:42-0400","Word Game",,"0","800","CONGRUENT","1","785.8899831771851","YELLOW","YELLOW"
"53e12b25b6145e97400923a1","BLUE-00051","2014-08-05T15:06:11-0400",,"FEMALE","LEFT","2014-08-05T15:01:42-0400","Word Game",,"1","790","CONGRUENT","0","N/A","N/A","GREEN"
"53e12b25b6145e97400923a1","BLUE-00051","2014-08-05T15:06:11-0400",,"FEMALE","LEFT","2014-08-05T15:01:42-0400","Word Game",,"1","800","INCONGRUENT","0","N/A","N/A","GREEN"
"53e12b25b6145e97400923a1","BLUE-00051","2014-08-05T15:06:11-0400",,"FEMALE","LEFT","2014-08-05T15:01:42-0400","Word Game",,"0","830","CONGRUENT","1","771.0890173912048","RED","RED"
"53e12b25b6145e97400923a1","BLUE-00051","2014-08-05T15:06:11-0400",,"FEMALE","LEFT","2014-08-05T15:01:42-0400","Word Game",,"0","840","INCONGRUENT","1","785.664975643158","GREEN","GREEN"
"53e12b25b6145e97400923a1","BLUE-00051","2014-08-05T15:06:11-0400",,"FEMALE","LEFT","2014-08-05T15:01:42-0400","Word Game",,"0","830","INCONGRUENT","1","751.6599893569946","WHITE","WHITE"
"53e12b25b6145e97400923a1","BLUE-00051","2014-08-05T15:06:11-0400",,"FEMALE","LEFT","2014-08-05T15:01:42-0400","Word Game",,"0","820","INCONGRUENT","1","733.7740063667297","WHITE","WHITE"
"53e12b25b6145e97400923a1","BLUE-00051","2014-08-05T15:06:11-0400",,"FEMALE","LEFT","2014-08-05T15:01:42-0400","Word Game",,"0","850","NEUTRAL","1","825.8919715881348","GREEN","GREEN"
"53e12b25b6145e97400923a1","BLUE-00051","2014-08-05T15:06:11-0400",,"FEMALE","LEFT","2014-08-05T15:01:42-0400","Word Game",,"0","830","NEUTRAL","1","585.6800079345703","GREEN","GREEN"
"53e12b25b6145e97400923a1","BLUE-00051","2014-08-05T15:06:11-0400",,"FEMALE","LEFT","2014-08-05T15:01:42-0400","Word Game",,"1","800","INCONGRUENT","0","N/A","N/A","YELLOW"
"53e12b25b6145e97400923a1","BLUE-00051","2014-08-05T15:06:11-0400",,"FEMALE","LEFT","2014-08-05T15:01:42-0400","Word Game",,"0","820","CONGRUENT","1","656.1880111694336","YELLOW","YELLOW"
"53e12b25b6145e97400923a1","BLUE-00051","2014-08-05T15:06:11-0400",,"FEMALE","LEFT","2014-08-05T15:01:42-0400","Word Game",,"0","840","INCONGRUENT","1","817.8150057792664","GREEN","GREEN"
"53e12b25b6145e97400923a1","BLUE-00051","2014-08-05T15:06:11-0400",,"FEMALE","LEFT","2014-08-05T15:01:42-0400","Word Game",,"1","810","CONGRUENT","0","N/A","N/A","YELLOW"
"53e12b25b6145e97400923a1","BLUE-00051","2014-08-05T15:06:11-0400",,"FEMALE","LEFT","2014-08-05T15:01:42-0400","Word Game",,"0","790","NEUTRAL","1","737.8720045089722","WHITE","WHITE"
"53e12b25b6145e97400923a1","BLUE-00051","2014-08-05T15:06:11-0400",,"FEMALE","LEFT","2014-08-05T15:01:42-0400","Word Game",,"0","850","CONGRUENT","1","617.156982421875","WHITE","WHITE"
"53e12b25b6145e97400923a1","BLUE-00051","2014-08-05T15:06:11-0400",,"FEMALE","LEFT","2014-08-05T15:01:42-0400","Word Game",,"1","840","CONGRUENT","0","N/A","N/A","GREEN"
"53e12b25b6145e97400923a1","BLUE-00051","2014-08-05T15:06:11-0400",,"FEMALE","LEFT","2014-08-05T15:01:42-0400","Word Game",,"1","710","NEUTRAL","0","N/A","WHITE","WHITE"
"53e12b25b6145e97400923a1","BLUE-00051","2014-08-05T15:06:11-0400",,"FEMALE","LEFT","2014-08-05T15:01:42-0400","Word Game",,"0","830","INCONGRUENT","1","699.9269723892212","YELLOW","YELLOW"
"53e12b25b6145e97400923a1","BLUE-00051","2014-08-05T15:06:11-0400",,"FEMALE","LEFT","2014-08-05T15:01:42-0400","Word Game",,"0","880","CONGRUENT","1","800.383985042572","RED","RED"
"53e12b25b6145e97400923a1","BLUE-00051","2014-08-05T15:06:11-0400",,"FEMALE","LEFT","2014-08-05T15:01:42-0400","Word Game",,"1","820","INCONGRUENT","0","N/A","N/A","YELLOW"
"53e12b25b6145e97400923a1","BLUE-00051","2014-08-05T15:06:11-0400",,"FEMALE","LEFT","2014-08-05T15:01:42-0400","Word Game",,"1","860","INCONGRUENT","0","N/A","N/A","YELLOW"
"53e12b25b6145e97400923a1","BLUE-00051","2014-08-05T15:06:11-0400",,"FEMALE","LEFT","2014-08-05T15:01:42-0400","Word Game",,"1","870","CONGRUENT","0","N/A","N/A","WHITE"
"53e12b25b6145e97400923a1","BLUE-00051","2014-08-05T15:06:11-0400",,"FEMALE","LEFT","2014-08-05T15:01:42-0400","Word Game",,"0","900","INCONGRUENT","0","900","N/A","YELLOW"
"53e12b25b6145e97400923a1","BLUE-00051","2014-08-05T15:06:11-0400",,"FEMALE","LEFT","2014-08-05T15:01:42-0400","Word Game",,"0","980","INCONGRUENT","1","852.8670072555542","YELLOW","YELLOW"
"53e12b25b6145e97400923a1","BLUE-00051","2014-08-05T15:06:11-0400",,"FEMALE","LEFT","2014-08-05T15:01:42-0400","Word Game",,"1","750","NEUTRAL","0","N/A","RED","RED"
"53e12b25b6145e97400923a1","BLUE-00051","2014-08-05T15:06:11-0400",,"FEMALE","LEFT","2014-08-05T15:01:42-0400","Word Game",,"0","970","INCONGRUENT","0","465.2019739151001","RED","YELLOW"
"53e12b25b6145e97400923a1","BLUE-00051","2014-08-05T15:06:11-0400",,"FEMALE","LEFT","2014-08-05T15:01:42-0400","Word Game",,"1","790","NEUTRAL","0","N/A","GREEN","GREEN"
"53e12b25b6145e97400923a1","BLUE-00051","2014-08-05T15:06:11-0400",,"FEMALE","LEFT","2014-08-05T15:01:42-0400","Word Game",,"1","870","NEUTRAL","0","N/A","GREEN","GREEN"
"53e12b25b6145e97400923a1","BLUE-00051","2014-08-05T15:06:11-0400",,"FEMALE","LEFT","2014-08-05T15:01:42-0400","Word Game",,"0","1030","NEUTRAL","1","881.5969824790955","YELLOW","YELLOW"
"53e12b25b6145e97400923a1","BLUE-00051","2014-08-05T15:06:11-0400",,"FEMALE","LEFT","2014-08-05T15:01:42-0400","Word Game",,"0","1010","INCONGRUENT","1","732.2369813919067","WHITE","WHITE"
"53e12b25b6145e97400923a1","BLUE-00051","2014-08-05T15:06:11-0400",,"FEMALE","LEFT","2014-08-05T15:01:42-0400","Word Game",,"0","910","CONGRUENT","1","748.6039996147156","RED","RED"
"53e12b25b6145e97400923a1","BLUE-00051","2014-08-05T15:06:11-0400",,"FEMALE","LEFT","2014-08-05T15:01:42-0400","Word Game",,"0","1000","INCONGRUENT","1","865.4339909553528","YELLOW","YELLOW"
"53e12b25b6145e97400923a1","BLUE-00051","2014-08-05T15:06:11-0400",,"FEMALE","LEFT","2014-08-05T15:01:42-0400","Word Game",,"0","990","INCONGRUENT","1","747.5360035896301","WHITE","WHITE"
"53e12b25b6145e97400923a1","BLUE-00051","2014-08-05T15:06:11-0400",,"FEMALE","LEFT","2014-08-05T15:01:42-0400","Word Game",,"0","970","INCONGRUENT","1","715.2009606361389","YELLOW","YELLOW"
"53e12b25b6145e97400923a1","BLUE-00051","2014-08-05T15:06:11-0400",,"FEMALE","LEFT","2014-08-05T15:01:42-0400","Word Game",,"0","930","INCONGRUENT","1","696.5770125389099","YELLOW","YELLOW"
"53e12b25b6145e97400923a1","BLUE-00051","2014-08-05T15:06:11-0400",,"FEMALE","LEFT","2014-08-05T15:01:42-0400","Word Game",,"0","850","INCONGRUENT","1","713.4889960289001","WHITE","WHITE"
"53e12b25b6145e97400923a1","BLUE-00051","2014-08-05T15:06:11-0400",,"FEMALE","LEFT","2014-08-05T15:01:42-0400","Word Game",,"0","1020","NEUTRAL","1","679.0459752082825","YELLOW","YELLOW"
"53e12b25b6145e97400923a1","BLUE-00051","2014-08-05T15:06:11-0400",,"FEMALE","LEFT","2014-08-05T15:01:42-0400","Word Game",,"0","1010","NEUTRAL","1","778.0709862709045","YELLOW","YELLOW"
"53e12b25b6145e97400923a1","BLUE-00051","2014-08-05T15:06:11-0400",,"FEMALE","LEFT","2014-08-05T15:01:42-0400","Word Game",,"1","900","CONGRUENT","0","N/A","RED","RED"
"53e12b25b6145e97400923a1","BLUE-00051","2014-08-05T15:06:11-0400",,"FEMALE","LEFT","2014-08-05T15:01:42-0400","Word Game",,"0","940","CONGRUENT","1","928.5899996757507","WHITE","WHITE"
"53e12b25b6145e97400923a1","BLUE-00051","2014-08-05T15:06:11-0400",,"FEMALE","LEFT","2014-08-05T15:01:42-0400","Word Game",,"0","990","NEUTRAL","1","893.750011920929","RED","RED"
"53e12b25b6145e97400923a1","BLUE-00051","2014-08-05T15:06:11-0400",,"FEMALE","LEFT","2014-08-05T15:01:42-0400","Word Game",,"0","930","CONGRUENT","1","644.5940136909485","WHITE","WHITE"
"53e12b25b6145e97400923a1","BLUE-00051","2014-08-05T15:06:11-0400",,"FEMALE","LEFT","2014-08-05T15:01:42-0400","Word Game",,"0","950","NEUTRAL","1","594.4309830665588","WHITE","WHITE"
"53e12b25b6145e97400923a1","BLUE-00051","2014-08-05T15:06:11-0400",,"FEMALE","LEFT","2014-08-05T15:01:42-0400","Word Game",,"0","920","CONGRUENT","1","593.4800505638123","WHITE","WHITE"
"53e12b25b6145e97400923a1","BLUE-00051","2014-08-05T15:06:11-0400",,"FEMALE","LEFT","2014-08-05T15:01:42-0400","Word Game",,"0","870","NEUTRAL","1","711.4109992980957","YELLOW","YELLOW"
"53e12b25b6145e97400923a1","BLUE-00051","2014-08-05T15:06:11-0400",,"FEMALE","LEFT","2014-08-05T15:01:42-0400","Word Game",,"0","900","CONGRUENT","1","776.5209674835205","RED","RED"
"53e12b25b6145e97400923a1","BLUE-00051","2014-08-05T15:06:11-0400",,"FEMALE","LEFT","2014-08-05T15:01:42-0400","Word Game",,"1","710","NEUTRAL","0","N/A","RED","RED"
"53e12b25b6145e97400923a1","BLUE-00051","2014-08-05T15:06:11-0400",,"FEMALE","LEFT","2014-08-05T15:01:42-0400","Word Game",,"1","690","INCONGRUENT","0","N/A","YELLOW","YELLOW"
"53e1a4f7b6145e47420923a2","BLUE-00052","2014-08-05T20:45:59-0700",,"FEMALE","RIGHT","2014-08-05T20:38:55-0700","Word Game",,"0","800","NEUTRAL","1","698.0370283126831","YELLOW","YELLOW"
"53e1a4f7b6145e47420923a2","BLUE-00052","2014-08-05T20:45:59-0700",,"FEMALE","RIGHT","2014-08-05T20:38:55-0700","Word Game",,"0","800","INCONGRUENT","0","800","N/A","YELLOW"
"53e1a4f7b6145e47420923a2","BLUE-00052","2014-08-05T20:45:59-0700",,"FEMALE","RIGHT","2014-08-05T20:38:55-0700","Word Game",,"0","840","INCONGRUENT","1","554.0249943733215","YELLOW","YELLOW"
"53e1a4f7b6145e47420923a2","BLUE-00052","2014-08-05T20:45:59-0700",,"FEMALE","RIGHT","2014-08-05T20:38:55-0700","Word Game",,"1","790","NEUTRAL","0","N/A","N/A","WHITE"
"53e1a4f7b6145e47420923a2","BLUE-00052","2014-08-05T20:45:59-0700",,"FEMALE","RIGHT","2014-08-05T20:38:55-0700","Word Game",,"1","830","NEUTRAL","0","N/A","N/A","RED"
"53e1a4f7b6145e47420923a2","BLUE-00052","2014-08-05T20:45:59-0700",,"FEMALE","RIGHT","2014-08-05T20:38:55-0700","Word Game",,"0","870","NEUTRAL","1","813.9520287513733","GREEN","GREEN"
"53e1a4f7b6145e47420923a2","BLUE-00052","2014-08-05T20:45:59-0700",,"FEMALE","RIGHT","2014-08-05T20:38:55-0700","Word Game",,"1","830","INCONGRUENT","0","N/A","N/A","GREEN"
"53e1a4f7b6145e47420923a2","BLUE-00052","2014-08-05T20:45:59-0700",,"FEMALE","RIGHT","2014-08-05T20:38:55-0700","Word Game",,"0","800","CONGRUENT","1","704.321026802063","WHITE","WHITE"
"53e1a4f7b6145e47420923a2","BLUE-00052","2014-08-05T20:45:59-0700",,"FEMALE","RIGHT","2014-08-05T20:38:55-0700","Word Game",,"0","790","CONGRUENT","1","645.7909941673279","WHITE","WHITE"
"53e1a4f7b6145e47420923a2","BLUE-00052","2014-08-05T20:45:59-0700",,"FEMALE","RIGHT","2014-08-05T20:38:55-0700","Word Game",,"0","870","INCONGRUENT","1","859.1639995574951","GREEN","GREEN"
"53e1a4f7b6145e47420923a2","BLUE-00052","2014-08-05T20:45:59-0700",,"FEMALE","RIGHT","2014-08-05T20:38:55-0700","Word Game",,"0","780","CONGRUENT","1","759.6339583396912","YELLOW","YELLOW"
"53e1a4f7b6145e47420923a2","BLUE-00052","2014-08-05T20:45:59-0700",,"FEMALE","RIGHT","2014-08-05T20:38:55-0700","Word Game",,"1","860","INCONGRUENT","0","N/A","N/A","GREEN"
"53e1a4f7b6145e47420923a2","BLUE-00052","2014-08-05T20:45:59-0700",,"FEMALE","RIGHT","2014-08-05T20:38:55-0700","Word Game",,"0","900","INCONGRUENT","0","900","N/A","YELLOW"
"53e1a4f7b6145e47420923a2","BLUE-00052","2014-08-05T20:45:59-0700",,"FEMALE","RIGHT","2014-08-05T20:38:55-0700","Word Game",,"1","760","CONGRUENT","0","N/A","YELLOW","YELLOW"
"53e1a4f7b6145e47420923a2","BLUE-00052","2014-08-05T20:45:59-0700",,"FEMALE","RIGHT","2014-08-05T20:38:55-0700","Word Game",,"0","940","INCONGRUENT","0","940","N/A","GREEN"
"53e1a4f7b6145e47420923a2","BLUE-00052","2014-08-05T20:45:59-0700",,"FEMALE","RIGHT","2014-08-05T20:38:55-0700","Word Game",,"1","860","NEUTRAL","0","N/A","N/A","GREEN"
"53e1a4f7b6145e47420923a2","BLUE-00052","2014-08-05T20:45:59-0700",,"FEMALE","RIGHT","2014-08-05T20:38:55-0700","Word Game",,"0","800","CONGRUENT","1","731.4369678497314","YELLOW","YELLOW"
"53e1a4f7b6145e47420923a2","BLUE-00052","2014-08-05T20:45:59-0700",,"FEMALE","RIGHT","2014-08-05T20:38:55-0700","Word Game",,"1","900","NEUTRAL","0","N/A","N/A","GREEN"
"53e1a4f7b6145e47420923a2","BLUE-00052","2014-08-05T20:45:59-0700",,"FEMALE","RIGHT","2014-08-05T20:38:55-0700","Word Game",,"0","1020","INCONGRUENT","1","628.5659670829773","GREEN","GREEN"
"53e1a4f7b6145e47420923a2","BLUE-00052","2014-08-05T20:45:59-0700",,"FEMALE","RIGHT","2014-08-05T20:38:55-0700","Word Game",,"1","790","CONGRUENT","0","N/A","YELLOW","YELLOW"
"53e1a4f7b6145e47420923a2","BLUE-00052","2014-08-05T20:45:59-0700",,"FEMALE","RIGHT","2014-08-05T20:38:55-0700","Word Game",,"0","940","NEUTRAL","1","808.7940216064453","GREEN","GREEN"
"53e1a4f7b6145e47420923a2","BLUE-00052","2014-08-05T20:45:59-0700",,"FEMALE","RIGHT","2014-08-05T20:38:55-0700","Word Game",,"0","830","CONGRUENT","1","692.4279928207397","YELLOW","YELLOW"
"53e1a4f7b6145e47420923a2","BLUE-00052","2014-08-05T20:45:59-0700",,"FEMALE","RIGHT","2014-08-05T20:38:55-0700","Word Game",,"0","930","NEUTRAL","1","743.0949807167053","GREEN","GREEN"
"53e1a4f7b6145e47420923a2","BLUE-00052","2014-08-05T20:45:59-0700",,"FEMALE","RIGHT","2014-08-05T20:38:55-0700","Word Game",,"0","920","NEUTRAL","1","876.6500353813171","RED","RED"
"53e1a4f7b6145e47420923a2","BLUE-00052","2014-08-05T20:45:59-0700",,"FEMALE","RIGHT","2014-08-05T20:38:55-0700","Word Game",,"1","900","NEUTRAL","0","N/A","RED","RED"
"53e1a4f7b6145e47420923a2","BLUE-00052","2014-08-05T20:45:59-0700",,"FEMALE","RIGHT","2014-08-05T20:38:55-0700","Word Game",,"0","1010","INCONGRUENT","1","878.4610033035278","GREEN","GREEN"
"53e1a4f7b6145e47420923a2","BLUE-00052","2014-08-05T20:45:59-0700",,"FEMALE","RIGHT","2014-08-05T20:38:55-0700","Word Game",,"0","940","NEUTRAL","1","875.2309679985046","GREEN","GREEN"
"53e1a4f7b6145e47420923a2","BLUE-00052","2014-08-05T20:45:59-0700",,"FEMALE","RIGHT","2014-08-05T20:38:55-0700","Word Game",,"0","820","CONGRUENT","1","724.469006061554","RED","RED"
"53e1a4f7b6145e47420923a2","BLUE-00052","2014-08-05T20:45:59-0700",,"FEMALE","RIGHT","2014-08-05T20:38:55-0700","Word Game",,"0","810","CONGRUENT","1","742.4420118331909","GREEN","GREEN"
"53e1a4f7b6145e47420923a2","BLUE-00052","2014-08-05T20:45:59-0700",,"FEMALE","RIGHT","2014-08-05T20:38:55-0700","Word Game",,"0","1000","INCONGRUENT","1","657.8690409660339","GREEN","GREEN"
"53e1a4f7b6145e47420923a2","BLUE-00052","2014-08-05T20:45:59-0700",,"FEMALE","RIGHT","2014-08-05T20:38:55-0700","Word Game",,"0","930","NEUTRAL","0","726.3789772987366","GREEN","WHITE"
"53e1a4f7b6145e47420923a2","BLUE-00052","2014-08-05T20:45:59-0700",,"FEMALE","RIGHT","2014-08-05T20:38:55-0700","Word Game",,"0","980","INCONGRUENT","1","674.6299862861633","YELLOW","YELLOW"
"53e1a4f7b6145e47420923a2","BLUE-00052","2014-08-05T20:45:59-0700",,"FEMALE","RIGHT","2014-08-05T20:38:55-0700","Word Game",,"0","790","CONGRUENT","1","591.1939740180969","WHITE","WHITE"
"53e1a4f7b6145e47420923a2","BLUE-00052","2014-08-05T20:45:59-0700",,"FEMALE","RIGHT","2014-08-05T20:38:55-0700","Word Game",,"0","970","NEUTRAL","1","725.7450222969055","YELLOW","YELLOW"
"53e1a4f7b6145e47420923a2","BLUE-00052","2014-08-05T20:45:59-0700",,"FEMALE","RIGHT","2014-08-05T20:38:55-0700","Word Game",,"0","960","NEUTRAL","1","594.3009853363037","YELLOW","YELLOW"
"53e1a4f7b6145e47420923a2","BLUE-00052","2014-08-05T20:45:59-0700",,"FEMALE","RIGHT","2014-08-05T20:38:55-0700","Word Game",,"0","750","CONGRUENT","1","608.5699796676636","YELLOW","YELLOW"
"53e1a4f7b6145e47420923a2","BLUE-00052","2014-08-05T20:45:59-0700",,"FEMALE","RIGHT","2014-08-05T20:38:55-0700","Word Game",,"0","950","NEUTRAL","1","942.1930313110352","RED","RED"
"53e1a4f7b6145e47420923a2","BLUE-00052","2014-08-05T20:45:59-0700",,"FEMALE","RIGHT","2014-08-05T20:38:55-0700","Word Game",,"0","930","NEUTRAL","1","790.4350161552429","WHITE","WHITE"
"53e1a4f7b6145e47420923a2","BLUE-00052","2014-08-05T20:45:59-0700",,"FEMALE","RIGHT","2014-08-05T20:38:55-0700","Word Game",,"1","670","CONGRUENT","0","N/A","WHITE","WHITE"
"53e1a4f7b6145e47420923a2","BLUE-00052","2014-08-05T20:45:59-0700",,"FEMALE","RIGHT","2014-08-05T20:38:55-0700","Word Game",,"0","940","INCONGRUENT","1","791.2960052490234","YELLOW","YELLOW"
"53e1a4f7b6145e47420923a2","BLUE-00052","2014-08-05T20:45:59-0700",,"FEMALE","RIGHT","2014-08-05T20:38:55-0700","Word Game",,"1","890","NEUTRAL","0","N/A","WHITE","WHITE"
"53e1a4f7b6145e47420923a2","BLUE-00052","2014-08-05T20:45:59-0700",,"FEMALE","RIGHT","2014-08-05T20:38:55-0700","Word Game",,"0","860","INCONGRUENT","1","774.9630212783813","YELLOW","YELLOW"
"53e1a4f7b6145e47420923a2","BLUE-00052","2014-08-05T20:45:59-0700",,"FEMALE","RIGHT","2014-08-05T20:38:55-0700","Word Game",,"1","700","INCONGRUENT","0","N/A","N/A","YELLOW"
"53e1a4f7b6145e47420923a2","BLUE-00052","2014-08-05T20:45:59-0700",,"FEMALE","RIGHT","2014-08-05T20:38:55-0700","Word Game",,"0","930","NEUTRAL","1","907.630980014801","WHITE","WHITE"
"53e1a4f7b6145e47420923a2","BLUE-00052","2014-08-05T20:45:59-0700",,"FEMALE","RIGHT","2014-08-05T20:38:55-0700","Word Game",,"1","740","INCONGRUENT","0","N/A","YELLOW","YELLOW"
"53e1a4f7b6145e47420923a2","BLUE-00052","2014-08-05T20:45:59-0700",,"FEMALE","RIGHT","2014-08-05T20:38:55-0700","Word Game",,"1","780","INCONGRUENT","0","N/A","N/A","YELLOW"
"53e1a4f7b6145e47420923a2","BLUE-00052","2014-08-05T20:45:59-0700",,"FEMALE","RIGHT","2014-08-05T20:38:55-0700","Word Game",,"1","710","CONGRUENT","0","N/A","WHITE","WHITE"
"53e1a4f7b6145e47420923a2","BLUE-00052","2014-08-05T20:45:59-0700",,"FEMALE","RIGHT","2014-08-05T20:38:55-0700","Word Game",,"0","860","INCONGRUENT","1","822.2389817237854","YELLOW","YELLOW"
"53e1a4f7b6145e47420923a2","BLUE-00052","2014-08-05T20:45:59-0700",,"FEMALE","RIGHT","2014-08-05T20:38:55-0700","Word Game",,"0","750","CONGRUENT","1","722.5679755210876","WHITE","WHITE"
"53e1a4f7b6145e47420923a2","BLUE-00052","2014-08-05T20:45:59-0700",,"FEMALE","RIGHT","2014-08-05T20:38:55-0700","Word Game",,"1","740","CONGRUENT","0","N/A","RED","RED"
"53e1a4f7b6145e47420923a2","BLUE-00052","2014-08-05T20:45:59-0700",,"FEMALE","RIGHT","2014-08-05T20:38:55-0700","Word Game",,"1","780","CONGRUENT","0","N/A","RED","RED"
"53e1a4f7b6145e47420923a2","BLUE-00052","2014-08-05T20:45:59-0700",,"FEMALE","RIGHT","2014-08-05T20:38:55-0700","Word Game",,"0","850","INCONGRUENT","1","838.4190201759338","YELLOW","YELLOW"
"53e1a4f7b6145e47420923a2","BLUE-00052","2014-08-05T20:45:59-0700",,"FEMALE","RIGHT","2014-08-05T20:38:55-0700","Word Game",,"1","820","CONGRUENT","0","N/A","RED","RED"
"53e1a4f7b6145e47420923a2","BLUE-00052","2014-08-05T20:45:59-0700",,"FEMALE","RIGHT","2014-08-05T20:38:55-0700","Word Game",,"0","920","NEUTRAL","1","740.5279874801636","WHITE","WHITE"
"53e1a4f7b6145e47420923a2","BLUE-00052","2014-08-05T20:45:59-0700",,"FEMALE","RIGHT","2014-08-05T20:38:55-0700","Word Game",,"0","900","CONGRUENT","1","857.6380014419556","GREEN","GREEN"
"53e1a4f7b6145e47420923a2","BLUE-00052","2014-08-05T20:45:59-0700",,"FEMALE","RIGHT","2014-08-05T20:38:55-0700","Word Game",,"0","890","CONGRUENT","1","704.3589949607849","RED","RED"
"53e1a4f7b6145e47420923a2","BLUE-00052","2014-08-05T20:45:59-0700",,"FEMALE","RIGHT","2014-08-05T20:38:55-0700","Word Game",,"0","840","INCONGRUENT","1","688.7600421905518","YELLOW","YELLOW"
"53e1a4f7b6145e47420923a2","BLUE-00052","2014-08-05T20:45:59-0700",,"FEMALE","RIGHT","2014-08-05T20:38:55-0700","Word Game",,"0","820","INCONGRUENT","1","590.0749564170837","WHITE","WHITE"
"53e1a4f7b6145e47420923a2","BLUE-00052","2014-08-05T20:45:59-0700",,"FEMALE","RIGHT","2014-08-05T20:38:55-0700","Word Game",,"0","780","INCONGRUENT","1","690.0829672813416","WHITE","WHITE"
"53e1a4f7b6145e47420923a2","BLUE-00052","2014-08-05T20:45:59-0700",,"FEMALE","RIGHT","2014-08-05T20:38:55-0700","Word Game",,"0","910","NEUTRAL","1","771.1459994316101","RED","RED"
"53e1a4f7b6145e47420923a2","BLUE-00052","2014-08-05T20:45:59-0700",,"FEMALE","RIGHT","2014-08-05T20:38:55-0700","Word Game",,"0","890","NEUTRAL","1","755.6170225143433","RED","RED"
"53e1a4f7b6145e47420923a2","BLUE-00052","2014-08-05T20:45:59-0700",,"FEMALE","RIGHT","2014-08-05T20:38:55-0700","Word Game",,"1","700","INCONGRUENT","0","N/A","WHITE","WHITE"
"53e1a4f7b6145e47420923a2","BLUE-00052","2014-08-05T20:45:59-0700",,"FEMALE","RIGHT","2014-08-05T20:38:55-0700","Word Game",,"0","880","CONGRUENT","1","803.2239675521851","RED","RED"
"53e1a4f7b6145e47420923a2","BLUE-00052","2014-08-05T20:45:59-0700",,"FEMALE","RIGHT","2014-08-05T20:38:55-0700","Word Game",,"1","850","NEUTRAL","0","N/A","YELLOW","YELLOW"
"53e1a4f7b6145e47420923a2","BLUE-00052","2014-08-05T20:45:59-0700",,"FEMALE","RIGHT","2014-08-05T20:38:55-0700","Word Game",,"0","890","NEUTRAL","1","705.6809663772583","YELLOW","YELLOW"
"53e1a4f7b6145e47420923a2","BLUE-00052","2014-08-05T20:45:59-0700",,"FEMALE","RIGHT","2014-08-05T20:38:55-0700","Word Game",,"1","860","CONGRUENT","0","N/A","N/A","GREEN"
"53e1a4f7b6145e47420923a2","BLUE-00052","2014-08-05T20:45:59-0700",,"FEMALE","RIGHT","2014-08-05T20:38:55-0700","Word Game",,"0","900","CONGRUENT","1","721.4120030403137","GREEN","GREEN"
"53e1a4f7b6145e47420923a2","BLUE-00052","2014-08-05T20:45:59-0700",,"FEMALE","RIGHT","2014-08-05T20:38:55-0700","Word Game",,"1","890","CONGRUENT","0","N/A","GREEN","GREEN"
"53e1a4f7b6145e47420923a2","BLUE-00052","2014-08-05T20:45:59-0700",,"FEMALE","RIGHT","2014-08-05T20:38:55-0700","Word Game",,"1","740","INCONGRUENT","0","N/A","WHITE","WHITE"
"53e1a4f7b6145e47420923a2","BLUE-00052","2014-08-05T20:45:59-0700",,"FEMALE","RIGHT","2014-08-05T20:38:55-0700","Word Game",,"0","780","INCONGRUENT","1","638.1290555000305","WHITE","WHITE"
"53e1a4f7b6145e47420923a2","BLUE-00052","2014-08-05T20:45:59-0700",,"FEMALE","RIGHT","2014-08-05T20:38:55-0700","Word Game",,"0","880","NEUTRAL","1","788.8280153274536","YELLOW","YELLOW"
"53e1a4f7b6145e47420923a2","BLUE-00052","2014-08-05T20:45:59-0700",,"FEMALE","RIGHT","2014-08-05T20:38:55-0700","Word Game",,"0","930","CONGRUENT","1","803.0110001564026","GREEN","GREEN"
"53e1a4f7b6145e47420923a2","BLUE-00052","2014-08-05T20:45:59-0700",,"FEMALE","RIGHT","2014-08-05T20:38:55-0700","Word Game",,"0","870","NEUTRAL","1","852.2910475730896","WHITE","WHITE"
"53e1a4f7b6145e47420923a2","BLUE-00052","2014-08-05T20:45:59-0700",,"FEMALE","RIGHT","2014-08-05T20:38:55-0700","Word Game",,"0","770","INCONGRUENT","1","769.1900134086609","YELLOW","YELLOW"
"53e1a4f7b6145e47420923a2","BLUE-00052","2014-08-05T20:45:59-0700",,"FEMALE","RIGHT","2014-08-05T20:38:55-0700","Word Game",,"0","920","CONGRUENT","1","804.1560053825378","RED","RED"
"53e2ad4eb6145ec8340923a4","BLUE-00051","2014-08-06T18:33:47-0400",,"FEMALE","LEFT","2014-08-06T18:29:42-0400","Word Game",,"0","800","INCONGRUENT","1","765.3130292892456","YELLOW","YELLOW"
"53e2ad4eb6145ec8340923a4","BLUE-00051","2014-08-06T18:33:47-0400",,"FEMALE","LEFT","2014-08-06T18:29:42-0400","Word Game",,"0","800","NEUTRAL","1","610.3360056877136","YELLOW","YELLOW"
"53e2ad4eb6145ec8340923a4","BLUE-00051","2014-08-06T18:33:47-0400",,"FEMALE","LEFT","2014-08-06T18:29:42-0400","Word Game",,"0","790","INCONGRUENT","1","624.1179704666138","YELLOW","YELLOW"
"53e2ad4eb6145ec8340923a4","BLUE-00051","2014-08-06T18:33:47-0400",,"FEMALE","LEFT","2014-08-06T18:29:42-0400","Word Game",,"0","800","CONGRUENT","1","609.3369722366333","YELLOW","YELLOW"
"53e2ad4eb6145ec8340923a4","BLUE-00051","2014-08-06T18:33:47-0400",,"FEMALE","LEFT","2014-08-06T18:29:42-0400","Word Game",,"1","790","CONGRUENT","0","N/A","N/A","RED"
"53e2ad4eb6145ec8340923a4","BLUE-00051","2014-08-06T18:33:47-0400",,"FEMALE","LEFT","2014-08-06T18:29:42-0400","Word Game",,"0","790","NEUTRAL","1","710.004985332489","RED","RED"
"53e2ad4eb6145ec8340923a4","BLUE-00051","2014-08-06T18:33:47-0400",,"FEMALE","LEFT","2014-08-06T18:29:42-0400","Word Game",,"0","780","NEUTRAL","1","539.4359827041626","RED","RED"
"53e2ad4eb6145ec8340923a4","BLUE-00051","2014-08-06T18:33:47-0400",,"FEMALE","LEFT","2014-08-06T18:29:42-0400","Word Game",,"0","760","NEUTRAL","1","569.5820450782776","YELLOW","YELLOW"
"53e2ad4eb6145ec8340923a4","BLUE-00051","2014-08-06T18:33:47-0400",,"FEMALE","LEFT","2014-08-06T18:29:42-0400","Word Game",,"0","720","NEUTRAL","1","704.1809558868408","YELLOW","YELLOW"
"53e2ad4eb6145ec8340923a4","BLUE-00051","2014-08-06T18:33:47-0400",,"FEMALE","LEFT","2014-08-06T18:29:42-0400","Word Game",,"1","780","INCONGRUENT","0","N/A","N/A","YELLOW"
"53e2ad4eb6145ec8340923a4","BLUE-00051","2014-08-06T18:33:47-0400",,"FEMALE","LEFT","2014-08-06T18:29:42-0400","Word Game",,"0","820","INCONGRUENT","1","704.1559815406799","YELLOW","YELLOW"
"53e2ad4eb6145ec8340923a4","BLUE-00051","2014-08-06T18:33:47-0400",,"FEMALE","LEFT","2014-08-06T18:29:42-0400","Word Game",,"0","810","INCONGRUENT","1","637.1650099754333","YELLOW","YELLOW"
"53e2ad4eb6145ec8340923a4","BLUE-00051","2014-08-06T18:33:47-0400",,"FEMALE","LEFT","2014-08-06T18:29:42-0400","Word Game",,"0","800","INCONGRUENT","1","569.7559714317322","YELLOW","YELLOW"
"53e2ad4eb6145ec8340923a4","BLUE-00051","2014-08-06T18:33:47-0400",,"FEMALE","LEFT","2014-08-06T18:29:42-0400","Word Game",,"0","640","NEUTRAL","1","541.5990352630615","YELLOW","YELLOW"
"53e2ad4eb6145ec8340923a4","BLUE-00051","2014-08-06T18:33:47-0400",,"FEMALE","LEFT","2014-08-06T18:29:42-0400","Word Game",,"1","780","INCONGRUENT","0","N/A","WHITE","WHITE"
"53e2ad4eb6145ec8340923a4","BLUE-00051","2014-08-06T18:33:47-0400",,"FEMALE","LEFT","2014-08-06T18:29:42-0400","Word Game",,"0","830","CONGRUENT","1","704.1190266609192","WHITE","WHITE"
"53e2ad4eb6145ec8340923a4","BLUE-00051","2014-08-06T18:33:47-0400",,"FEMALE","LEFT","2014-08-06T18:29:42-0400","Word Game",,"1","480","NEUTRAL","0","N/A","WHITE","WHITE"
"53e2ad4eb6145ec8340923a4","BLUE-00051","2014-08-06T18:33:47-0400",,"FEMALE","LEFT","2014-08-06T18:29:42-0400","Word Game",,"0","820","CONGRUENT","1","605.2210330963135","YELLOW","YELLOW"
"53e2ad4eb6145ec8340923a4","BLUE-00051","2014-08-06T18:33:47-0400",,"FEMALE","LEFT","2014-08-06T18:29:42-0400","Word Game",,"1","820","INCONGRUENT","0","N/A","N/A","YELLOW"
"53e2ad4eb6145ec8340923a4","BLUE-00051","2014-08-06T18:33:47-0400",,"FEMALE","LEFT","2014-08-06T18:29:42-0400","Word Game",,"1","520","NEUTRAL","0","N/A","WHITE","WHITE"
"53e2ad4eb6145ec8340923a4","BLUE-00051","2014-08-06T18:33:47-0400",,"FEMALE","LEFT","2014-08-06T18:29:42-0400","Word Game",,"1","560","NEUTRAL","0","N/A","YELLOW","YELLOW"
"53e2ad4eb6145ec8340923a4","BLUE-00051","2014-08-06T18:33:47-0400",,"FEMALE","LEFT","2014-08-06T18:29:42-0400","Word Game",,"0","860","INCONGRUENT","0","860","N/A","GREEN"
"53e2ad4eb6145ec8340923a4","BLUE-00051","2014-08-06T18:33:47-0400",,"FEMALE","LEFT","2014-08-06T18:29:42-0400","Word Game",,"0","810","CONGRUENT","1","631.1570405960083","RED","RED"
"53e2ad4eb6145ec8340923a4","BLUE-00051","2014-08-06T18:33:47-0400",,"FEMALE","LEFT","2014-08-06T18:29:42-0400","Word Game",,"0","940","INCONGRUENT","1","715.9629464149475","YELLOW","YELLOW"
"53e2ad4eb6145ec8340923a4","BLUE-00051","2014-08-06T18:33:47-0400",,"FEMALE","LEFT","2014-08-06T18:29:42-0400","Word Game",,"1","640","NEUTRAL","0","N/A","N/A","GREEN"
"53e2ad4eb6145ec8340923a4","BLUE-00051","2014-08-06T18:33:47-0400",,"FEMALE","LEFT","2014-08-06T18:29:42-0400","Word Game",,"0","790","CONGRUENT","1","778.3709764480591","GREEN","GREEN"
"53e2ad4eb6145ec8340923a4","BLUE-00051","2014-08-06T18:33:47-0400",,"FEMALE","LEFT","2014-08-06T18:29:42-0400","Word Game",,"0","930","INCONGRUENT","1","818.2889819145203","YELLOW","YELLOW"
"53e2ad4eb6145ec8340923a4","BLUE-00051","2014-08-06T18:33:47-0400",,"FEMALE","LEFT","2014-08-06T18:29:42-0400","Word Game",,"1","800","NEUTRAL","0","N/A","N/A","RED"
"53e2ad4eb6145ec8340923a4","BLUE-00051","2014-08-06T18:33:47-0400",,"FEMALE","LEFT","2014-08-06T18:29:42-0400","Word Game",,"0","750","CONGRUENT","1","726.0119915008545","WHITE","WHITE"
"53e2ad4eb6145ec8340923a4","BLUE-00051","2014-08-06T18:33:47-0400",,"FEMALE","LEFT","2014-08-06T18:29:42-0400","Word Game",,"1","670","CONGRUENT","0","N/A","RED","RED"
"53e2ad4eb6145ec8340923a4","BLUE-00051","2014-08-06T18:33:47-0400",,"FEMALE","LEFT","2014-08-06T18:29:42-0400","Word Game",,"0","920","INCONGRUENT","1","684.1310262680054","YELLOW","YELLOW"
"53e2ad4eb6145ec8340923a4","BLUE-00051","2014-08-06T18:33:47-0400",,"FEMALE","LEFT","2014-08-06T18:29:42-0400","Word Game",,"0","1120","NEUTRAL","1","684.2600107192993","RED","RED"
"53e2ad4eb6145ec8340923a4","BLUE-00051","2014-08-06T18:33:47-0400",,"FEMALE","LEFT","2014-08-06T18:29:42-0400","Word Game",,"0","710","CONGRUENT","1","700.5929946899414","YELLOW","YELLOW"
"53e2ad4eb6145ec8340923a4","BLUE-00051","2014-08-06T18:33:47-0400",,"FEMALE","LEFT","2014-08-06T18:29:42-0400","Word Game",,"0","1110","NEUTRAL","1","617.1199679374695","RED","RED"
"53e2ad4eb6145ec8340923a4","BLUE-00051","2014-08-06T18:33:47-0400",,"FEMALE","LEFT","2014-08-06T18:29:42-0400","Word Game",,"1","700","CONGRUENT","0","N/A","WHITE","WHITE"
"53e2ad4eb6145ec8340923a4","BLUE-00051","2014-08-06T18:33:47-0400",,"FEMALE","LEFT","2014-08-06T18:29:42-0400","Word Game",,"1","740","CONGRUENT","0","N/A","GREEN","GREEN"
"53e2ad4eb6145ec8340923a4","BLUE-00051","2014-08-06T18:33:47-0400",,"FEMALE","LEFT","2014-08-06T18:29:42-0400","Word Game",,"1","780","CONGRUENT","0","N/A","GREEN","GREEN"
"53e2ad4eb6145ec8340923a4","BLUE-00051","2014-08-06T18:33:47-0400",,"FEMALE","LEFT","2014-08-06T18:29:42-0400","Word Game",,"0","1100","NEUTRAL","1","733.5569858551025","YELLOW","YELLOW"
"53e2ad4eb6145ec8340923a4","BLUE-00051","2014-08-06T18:33:47-0400",,"FEMALE","LEFT","2014-08-06T18:29:42-0400","Word Game",,"0","860","CONGRUENT","1","716.6849970817566","RED","RED"
"53e2ad4eb6145ec8340923a4","BLUE-00051","2014-08-06T18:33:47-0400",,"FEMALE","LEFT","2014-08-06T18:29:42-0400","Word Game",,"1","900","INCONGRUENT","0","N/A","YELLOW","YELLOW"
"53e2ad4eb6145ec8340923a4","BLUE-00051","2014-08-06T18:33:47-0400",,"FEMALE","LEFT","2014-08-06T18:29:42-0400","Word Game",,"1","850","CONGRUENT","0","N/A","WHITE","WHITE"
"53e2ad4eb6145ec8340923a4","BLUE-00051","2014-08-06T18:33:47-0400",,"FEMALE","LEFT","2014-08-06T18:29:42-0400","Word Game",,"1","890","CONGRUENT","0","N/A","GREEN","GREEN"
"53e2ad4eb6145ec8340923a4","BLUE-00051","2014-08-06T18:33:47-0400",,"FEMALE","LEFT","2014-08-06T18:29:42-0400","Word Game",,"0","1080","NEUTRAL","1","799.5719909667969","WHITE","WHITE"
"53e2ad4eb6145ec8340923a4","BLUE-00051","2014-08-06T18:33:47-0400",,"FEMALE","LEFT","2014-08-06T18:29:42-0400","Word Game",,"0","930","CONGRUENT","1","583.5520029067993","WHITE","WHITE"
"53e2ad4eb6145ec8340923a4","BLUE-00051","2014-08-06T18:33:47-0400",,"FEMALE","LEFT","2014-08-06T18:29:42-0400","Word Game",,"0","1040","NEUTRAL","1","567.503035068512","WHITE","WHITE"
"53e2ad4eb6145ec8340923a4","BLUE-00051","2014-08-06T18:33:47-0400",,"FEMALE","LEFT","2014-08-06T18:29:42-0400","Word Game",,"0","940","INCONGRUENT","1","700.5999684333801","YELLOW","YELLOW"
"53e2ad4eb6145ec8340923a4","BLUE-00051","2014-08-06T18:33:47-0400",,"FEMALE","LEFT","2014-08-06T18:29:42-0400","Word Game",,"0","930","INCONGRUENT","1","866.9580221176147","GREEN","GREEN"
"53e2ad4eb6145ec8340923a4","BLUE-00051","2014-08-06T18:33:47-0400",,"FEMALE","LEFT","2014-08-06T18:29:42-0400","Word Game",,"0","920","CONGRUENT","1","666.5419936180115","GREEN","GREEN"
"53e2ad4eb6145ec8340923a4","BLUE-00051","2014-08-06T18:33:47-0400",,"FEMALE","LEFT","2014-08-06T18:29:42-0400","Word Game",,"0","910","CONGRUENT","1","616.1510348320007","RED","RED"
"53e2ad4eb6145ec8340923a4","BLUE-00051","2014-08-06T18:33:47-0400",,"FEMALE","LEFT","2014-08-06T18:29:42-0400","Word Game",,"1","890","CONGRUENT","0","N/A","GREEN","GREEN"
"53e2ad4eb6145ec8340923a4","BLUE-00051","2014-08-06T18:33:47-0400",,"FEMALE","LEFT","2014-08-06T18:29:42-0400","Word Game",,"0","920","INCONGRUENT","1","699.1889476776123","WHITE","WHITE"
"53e2ad4eb6145ec8340923a4","BLUE-00051","2014-08-06T18:33:47-0400",,"FEMALE","LEFT","2014-08-06T18:29:42-0400","Word Game",,"1","960","NEUTRAL","0","N/A","GREEN","GREEN"
"53e2ad4eb6145ec8340923a4","BLUE-00051","2014-08-06T18:33:47-0400",,"FEMALE","LEFT","2014-08-06T18:29:42-0400","Word Game",,"0","1000","NEUTRAL","1","746.8540072441101","RED","RED"
"53e2ad4eb6145ec8340923a4","BLUE-00051","2014-08-06T18:33:47-0400",,"FEMALE","LEFT","2014-08-06T18:29:42-0400","Word Game",,"1","900","INCONGRUENT","0","N/A","GREEN","GREEN"
"53e2ad4eb6145ec8340923a4","BLUE-00051","2014-08-06T18:33:47-0400",,"FEMALE","LEFT","2014-08-06T18:29:42-0400","Word Game",,"0","930","CONGRUENT","1","813.5330080986023","WHITE","WHITE"
"53e2ad4eb6145ec8340923a4","BLUE-00051","2014-08-06T18:33:47-0400",,"FEMALE","LEFT","2014-08-06T18:29:42-0400","Word Game",,"1","940","INCONGRUENT","0","N/A","GREEN","GREEN"
"53e2ad4eb6145ec8340923a4","BLUE-00051","2014-08-06T18:33:47-0400",,"FEMALE","LEFT","2014-08-06T18:29:42-0400","Word Game",,"0","980","INCONGRUENT","1","796.9819903373718","GREEN","GREEN"
"53e2ad4eb6145ec8340923a4","BLUE-00051","2014-08-06T18:33:47-0400",,"FEMALE","LEFT","2014-08-06T18:29:42-0400","Word Game",,"0","970","INCONGRUENT","1","646.1139917373657","GREEN","GREEN"
"53e2ad4eb6145ec8340923a4","BLUE-00051","2014-08-06T18:33:47-0400",,"FEMALE","LEFT","2014-08-06T18:29:42-0400","Word Game",,"0","990","NEUTRAL","1","779.990017414093","WHITE","WHITE"
"53e2ad4eb6145ec8340923a4","BLUE-00051","2014-08-06T18:33:47-0400",,"FEMALE","LEFT","2014-08-06T18:29:42-0400","Word Game",,"0","980","NEUTRAL","1","628.7580132484436","WHITE","WHITE"
"53e2ad4eb6145ec8340923a4","BLUE-00051","2014-08-06T18:33:47-0400",,"FEMALE","LEFT","2014-08-06T18:29:42-0400","Word Game",,"0","960","NEUTRAL","1","829.3870091438293","GREEN","GREEN"
"53e2ad4eb6145ec8340923a4","BLUE-00051","2014-08-06T18:33:47-0400",,"FEMALE","LEFT","2014-08-06T18:29:42-0400","Word Game",,"0","960","INCONGRUENT","1","530.5390357971191","WHITE","WHITE"
"53e2ad4eb6145ec8340923a4","BLUE-00051","2014-08-06T18:33:47-0400",,"FEMALE","LEFT","2014-08-06T18:29:42-0400","Word Game",,"0","940","INCONGRUENT","1","563.2620453834534","WHITE","WHITE"
"53e2ad4eb6145ec8340923a4","BLUE-00051","2014-08-06T18:33:47-0400",,"FEMALE","LEFT","2014-08-06T18:29:42-0400","Word Game",,"0","920","CONGRUENT","1","896.1929678916931","RED","RED"
"53e2ad4eb6145ec8340923a4","BLUE-00051","2014-08-06T18:33:47-0400",,"FEMALE","LEFT","2014-08-06T18:29:42-0400","Word Game",,"0","910","CONGRUENT","1","780.8300256729126","YELLOW","YELLOW"
"53e2ad4eb6145ec8340923a4","BLUE-00051","2014-08-06T18:33:47-0400",,"FEMALE","LEFT","2014-08-06T18:29:42-0400","Word Game",,"0","900","INCONGRUENT","1","679.6810030937195","WHITE","WHITE"
"53e2ad4eb6145ec8340923a4","BLUE-00051","2014-08-06T18:33:47-0400",,"FEMALE","LEFT","2014-08-06T18:29:42-0400","Word Game",,"0","890","CONGRUENT","1","746.0630536079407","YELLOW","YELLOW"
"53e2ad4eb6145ec8340923a4","BLUE-00051","2014-08-06T18:33:47-0400",,"FEMALE","LEFT","2014-08-06T18:29:42-0400","Word Game",,"0","820","INCONGRUENT","1","578.2269835472107","WHITE","WHITE"
"53e2ad4eb6145ec8340923a4","BLUE-00051","2014-08-06T18:33:47-0400",,"FEMALE","LEFT","2014-08-06T18:29:42-0400","Word Game",,"0","850","CONGRUENT","1","543.3770418167114","YELLOW","YELLOW"
"53e2ad4eb6145ec8340923a4","BLUE-00051","2014-08-06T18:33:47-0400",,"FEMALE","LEFT","2014-08-06T18:29:42-0400","Word Game",,"0","920","NEUTRAL","1","878.4260153770447","GREEN","GREEN"
"53e2ad4eb6145ec8340923a4","BLUE-00051","2014-08-06T18:33:47-0400",,"FEMALE","LEFT","2014-08-06T18:29:42-0400","Word Game",,"0","840","NEUTRAL","1","744.3060278892517","GREEN","GREEN"
"53e2ad4eb6145ec8340923a4","BLUE-00051","2014-08-06T18:33:47-0400",,"FEMALE","LEFT","2014-08-06T18:29:42-0400","Word Game",,"0","680","NEUTRAL","1","577.2700309753418","GREEN","GREEN"
"53e2ad4eb6145ec8340923a4","BLUE-00051","2014-08-06T18:33:47-0400",,"FEMALE","LEFT","2014-08-06T18:29:42-0400","Word Game",,"1","360","NEUTRAL","0","N/A","GREEN","GREEN"
"53e2ad4eb6145ec8340923a4","BLUE-00051","2014-08-06T18:33:47-0400",,"FEMALE","LEFT","2014-08-06T18:29:42-0400","Word Game",,"1","660","INCONGRUENT","0","N/A","YELLOW","YELLOW"
"53e2ad4eb6145ec8340923a4","BLUE-00051","2014-08-06T18:33:47-0400",,"FEMALE","LEFT","2014-08-06T18:29:42-0400","Word Game",,"0","770","CONGRUENT","1","691.2919878959656","YELLOW","YELLOW"
"53e8fbefb6145e981aef3af9","BLUE-00056","2014-08-11T10:22:54-0700",,"FEMALE","RIGHT","2014-08-11T10:17:31-0700","Word Game",,"0","800","INCONGRUENT","0","800","N/A","YELLOW"
"53e8fbefb6145e981aef3af9","BLUE-00056","2014-08-11T10:22:54-0700",,"FEMALE","RIGHT","2014-08-11T10:17:31-0700","Word Game",,"0","800","NEUTRAL","0","800","N/A","WHITE"
"53e8fbefb6145e981aef3af9","BLUE-00056","2014-08-11T10:22:54-0700",,"FEMALE","RIGHT","2014-08-11T10:17:31-0700","Word Game",,"0","840","NEUTRAL","0","840","N/A","GREEN"
"53e8fbefb6145e981aef3af9","BLUE-00056","2014-08-11T10:22:54-0700",,"FEMALE","RIGHT","2014-08-11T10:17:31-0700","Word Game",,"0","880","NEUTRAL","0","880","N/A","WHITE"
"53e8fbefb6145e981aef3af9","BLUE-00056","2014-08-11T10:22:54-0700",,"FEMALE","RIGHT","2014-08-11T10:17:31-0700","Word Game",,"0","960","NEUTRAL","1","884.2300176620483","GREEN","GREEN"
"53e8fbefb6145e981aef3af9","BLUE-00056","2014-08-11T10:22:54-0700",,"FEMALE","RIGHT","2014-08-11T10:17:31-0700","Word Game",,"1","800","CONGRUENT","0","N/A","WHITE","WHITE"
"53e8fbefb6145e981aef3af9","BLUE-00056","2014-08-11T10:22:54-0700",,"FEMALE","RIGHT","2014-08-11T10:17:31-0700","Word Game",,"0","950","NEUTRAL","1","827.934980392456","WHITE","WHITE"
"53e8fbefb6145e981aef3af9","BLUE-00056","2014-08-11T10:22:54-0700",,"FEMALE","RIGHT","2014-08-11T10:17:31-0700","Word Game",,"1","840","CONGRUENT","0","N/A","YELLOW","YELLOW"
"53e8fbefb6145e981aef3af9","BLUE-00056","2014-08-11T10:22:54-0700",,"FEMALE","RIGHT","2014-08-11T10:17:31-0700","Word Game",,"0","940","NEUTRAL","1","895.1719999313354","GREEN","GREEN"
"53e8fbefb6145e981aef3af9","BLUE-00056","2014-08-11T10:22:54-0700",,"FEMALE","RIGHT","2014-08-11T10:17:31-0700","Word Game",,"1","840","INCONGRUENT","0","N/A","N/A","YELLOW"
"53e8fbefb6145e981aef3af9","BLUE-00056","2014-08-11T10:22:54-0700",,"FEMALE","RIGHT","2014-08-11T10:17:31-0700","Word Game",,"0","920","NEUTRAL","1","843.936026096344","WHITE","WHITE"
"53e8fbefb6145e981aef3af9","BLUE-00056","2014-08-11T10:22:54-0700",,"FEMALE","RIGHT","2014-08-11T10:17:31-0700","Word Game",,"0","880","CONGRUENT","1","878.2749772071838","WHITE","WHITE"
"53e8fbefb6145e981aef3af9","BLUE-00056","2014-08-11T10:22:54-0700",,"FEMALE","RIGHT","2014-08-11T10:17:31-0700","Word Game",,"1","870","CONGRUENT","0","N/A","N/A","YELLOW"
"53e8fbefb6145e981aef3af9","BLUE-00056","2014-08-11T10:22:54-0700",,"FEMALE","RIGHT","2014-08-11T10:17:31-0700","Word Game",,"0","910","CONGRUENT","1","875.4510283470154","GREEN","GREEN"
"53e8fbefb6145e981aef3af9","BLUE-00056","2014-08-11T10:22:54-0700",,"FEMALE","RIGHT","2014-08-11T10:17:31-0700","Word Game",,"1","880","NEUTRAL","0","N/A","GREEN","GREEN"
"53e8fbefb6145e981aef3af9","BLUE-00056","2014-08-11T10:22:54-0700",,"FEMALE","RIGHT","2014-08-11T10:17:31-0700","Word Game",,"1","880","INCONGRUENT","0","N/A","N/A","YELLOW"
"53e8fbefb6145e981aef3af9","BLUE-00056","2014-08-11T10:22:54-0700",,"FEMALE","RIGHT","2014-08-11T10:17:31-0700","Word Game",,"0","900","CONGRUENT","1","892.6759958267212","RED","RED"
"53e8fbefb6145e981aef3af9","BLUE-00056","2014-08-11T10:22:54-0700",,"FEMALE","RIGHT","2014-08-11T10:17:31-0700","Word Game",,"1","920","NEUTRAL","0","N/A","N/A","WHITE"
"53e8fbefb6145e981aef3af9","BLUE-00056","2014-08-11T10:22:54-0700",,"FEMALE","RIGHT","2014-08-11T10:17:31-0700","Word Game",,"0","960","INCONGRUENT","1","874.3209838867188","WHITE","WHITE"
"53e8fbefb6145e981aef3af9","BLUE-00056","2014-08-11T10:22:54-0700",,"FEMALE","RIGHT","2014-08-11T10:17:31-0700","Word Game",,"0","960","NEUTRAL","1","925.5369901657104","GREEN","GREEN"
"53e8fbefb6145e981aef3af9","BLUE-00056","2014-08-11T10:22:54-0700",,"FEMALE","RIGHT","2014-08-11T10:17:31-0700","Word Game",,"0","950","NEUTRAL","1","825.9869813919067","GREEN","GREEN"
"53e8fbefb6145e981aef3af9","BLUE-00056","2014-08-11T10:22:54-0700",,"FEMALE","RIGHT","2014-08-11T10:17:31-0700","Word Game",,"0","940","NEUTRAL","1","857.1029901504517","YELLOW","YELLOW"
"53e8fbefb6145e981aef3af9","BLUE-00056","2014-08-11T10:22:54-0700",,"FEMALE","RIGHT","2014-08-11T10:17:31-0700","Word Game",,"1","920","NEUTRAL","0","N/A","GREEN","GREEN"
"53e8fbefb6145e981aef3af9","BLUE-00056","2014-08-11T10:22:54-0700",,"FEMALE","RIGHT","2014-08-11T10:17:31-0700","Word Game",,"0","950","INCONGRUENT","1","874.4959831237793","WHITE","WHITE"
"53e8fbefb6145e981aef3af9","BLUE-00056","2014-08-11T10:22:54-0700",,"FEMALE","RIGHT","2014-08-11T10:17:31-0700","Word Game",,"0","890","CONGRUENT","1","758.5440278053284","RED","RED"
"53e8fbefb6145e981aef3af9","BLUE-00056","2014-08-11T10:22:54-0700",,"FEMALE","RIGHT","2014-08-11T10:17:31-0700","Word Game",,"1","940","INCONGRUENT","0","N/A","N/A","GREEN"
"53e8fbefb6145e981aef3af9","BLUE-00056","2014-08-11T10:22:54-0700",,"FEMALE","RIGHT","2014-08-11T10:17:31-0700","Word Game",,"1","870","CONGRUENT","0","N/A","N/A","RED"
"53e8fbefb6145e981aef3af9","BLUE-00056","2014-08-11T10:22:54-0700",,"FEMALE","RIGHT","2014-08-11T10:17:31-0700","Word Game",,"0","960","NEUTRAL","1","832.3010206222534","RED","RED"
"53e8fbefb6145e981aef3af9","BLUE-00056","2014-08-11T10:22:54-0700",,"FEMALE","RIGHT","2014-08-11T10:17:31-0700","Word Game",,"0","980","INCONGRUENT","0","980","N/A","YELLOW"
"53e8fbefb6145e981aef3af9","BLUE-00056","2014-08-11T10:22:54-0700",,"FEMALE","RIGHT","2014-08-11T10:17:31-0700","Word Game",,"0","1020","INCONGRUENT","0","1020","N/A","WHITE"
"53e8fbefb6145e981aef3af9","BLUE-00056","2014-08-11T10:22:54-0700",,"FEMALE","RIGHT","2014-08-11T10:17:31-0700","Word Game",,"0","910","CONGRUENT","1","901.8969535827637","GREEN","GREEN"
"53e8fbefb6145e981aef3af9","BLUE-00056","2014-08-11T10:22:54-0700",,"FEMALE","RIGHT","2014-08-11T10:17:31-0700","Word Game",,"0","1100","INCONGRUENT","0","1100","N/A","YELLOW"
"53e8fbefb6145e981aef3af9","BLUE-00056","2014-08-11T10:22:54-0700",,"FEMALE","RIGHT","2014-08-11T10:17:31-0700","Word Game",,"1","950","NEUTRAL","0","N/A","N/A","RED"
"53e8fbefb6145e981aef3af9","BLUE-00056","2014-08-11T10:22:54-0700",,"FEMALE","RIGHT","2014-08-11T10:17:31-0700","Word Game",,"0","1260","INCONGRUENT","1","855.3580045700073","WHITE","WHITE"
"53e8fbefb6145e981aef3af9","BLUE-00056","2014-08-11T10:22:54-0700",,"FEMALE","RIGHT","2014-08-11T10:17:31-0700","Word Game",,"0","900","CONGRUENT","1","761.0300183296204","WHITE","WHITE"
"53e8fbefb6145e981aef3af9","BLUE-00056","2014-08-11T10:22:54-0700",,"FEMALE","RIGHT","2014-08-11T10:17:31-0700","Word Game",,"1","990","NEUTRAL","0","N/A","N/A","YELLOW"
"53e8fbefb6145e981aef3af9","BLUE-00056","2014-08-11T10:22:54-0700",,"FEMALE","RIGHT","2014-08-11T10:17:31-0700","Word Game",,"1","1030","NEUTRAL","0","N/A","YELLOW","YELLOW"
"53e8fbefb6145e981aef3af9","BLUE-00056","2014-08-11T10:22:54-0700",,"FEMALE","RIGHT","2014-08-11T10:17:31-0700","Word Game",,"0","1250","INCONGRUENT","1","1090.0899767875671","YELLOW","YELLOW"
"53e8fbefb6145e981aef3af9","BLUE-00056","2014-08-11T10:22:54-0700",,"FEMALE","RIGHT","2014-08-11T10:17:31-0700","Word Game",,"0","1240","INCONGRUENT","1","757.2939991950989","YELLOW","YELLOW"
"53e8fbefb6145e981aef3af9","BLUE-00056","2014-08-11T10:22:54-0700",,"FEMALE","RIGHT","2014-08-11T10:17:31-0700","Word Game",,"0","1220","INCONGRUENT","1","772.2389698028564","YELLOW","YELLOW"
"53e8fbefb6145e981aef3af9","BLUE-00056","2014-08-11T10:22:54-0700",,"FEMALE","RIGHT","2014-08-11T10:17:31-0700","Word Game",,"1","890","CONGRUENT","0","N/A","WHITE","WHITE"
"53e8fbefb6145e981aef3af9","BLUE-00056","2014-08-11T10:22:54-0700",,"FEMALE","RIGHT","2014-08-11T10:17:31-0700","Word Game",,"0","1180","INCONGRUENT","1","955.1810026168823","WHITE","WHITE"
"53e8fbefb6145e981aef3af9","BLUE-00056","2014-08-11T10:22:54-0700",,"FEMALE","RIGHT","2014-08-11T10:17:31-0700","Word Game",,"0","1100","INCONGRUENT","1","655.072033405304","WHITE","WHITE"
"53e8fbefb6145e981aef3af9","BLUE-00056","2014-08-11T10:22:54-0700",,"FEMALE","RIGHT","2014-08-11T10:17:31-0700","Word Game",,"1","930","CONGRUENT","0","N/A","RED","RED"
"53e8fbefb6145e981aef3af9","BLUE-00056","2014-08-11T10:22:54-0700",,"FEMALE","RIGHT","2014-08-11T10:17:31-0700","Word Game",,"1","970","CONGRUENT","0","N/A","YELLOW","YELLOW"
"53e8fbefb6145e981aef3af9","BLUE-00056","2014-08-11T10:22:54-0700",,"FEMALE","RIGHT","2014-08-11T10:17:31-0700","Word Game",,"0","1110","NEUTRAL","1","1022.8439569473267","RED","RED"
"53e8fbefb6145e981aef3af9","BLUE-00056","2014-08-11T10:22:54-0700",,"FEMALE","RIGHT","2014-08-11T10:17:31-0700","Word Game",,"0","1100","NEUTRAL","1","1006.5889954566956","WHITE","WHITE"
"53e8fbefb6145e981aef3af9","BLUE-00056","2014-08-11T10:22:54-0700",,"FEMALE","RIGHT","2014-08-11T10:17:31-0700","Word Game",,"1","940","INCONGRUENT","0","N/A","N/A","YELLOW"
"53e8fbefb6145e981aef3af9","BLUE-00056","2014-08-11T10:22:54-0700",,"FEMALE","RIGHT","2014-08-11T10:17:31-0700","Word Game",,"1","980","INCONGRUENT","0","N/A","GREEN","GREEN"
"53e8fbefb6145e981aef3af9","BLUE-00056","2014-08-11T10:22:54-0700",,"FEMALE","RIGHT","2014-08-11T10:17:31-0700","Word Game",,"0","1020","INCONGRUENT","1","1006.1659812927246","YELLOW","YELLOW"
"53e8fbefb6145e981aef3af9","BLUE-00056","2014-08-11T10:22:54-0700",,"FEMALE","RIGHT","2014-08-11T10:17:31-0700","Word Game",,"0","1090","NEUTRAL","1","973.6149907112122","YELLOW","YELLOW"
"53e8fbefb6145e981aef3af9","BLUE-00056","2014-08-11T10:22:54-0700",,"FEMALE","RIGHT","2014-08-11T10:17:31-0700","Word Game",,"0","1070","NEUTRAL","1","972.8550314903259","YELLOW","YELLOW"
"53e8fbefb6145e981aef3af9","BLUE-00056","2014-08-11T10:22:54-0700",,"FEMALE","RIGHT","2014-08-11T10:17:31-0700","Word Game",,"1","1010","INCONGRUENT","0","N/A","YELLOW","YELLOW"
"53e8fbefb6145e981aef3af9","BLUE-00056","2014-08-11T10:22:54-0700",,"FEMALE","RIGHT","2014-08-11T10:17:31-0700","Word Game",,"0","1050","CONGRUENT","1","939.814031124115","RED","RED"
"53e8fbefb6145e981aef3af9","BLUE-00056","2014-08-11T10:22:54-0700",,"FEMALE","RIGHT","2014-08-11T10:17:31-0700","Word Game",,"0","1040","CONGRUENT","1","988.8330101966858","YELLOW","YELLOW"
"53e8fbefb6145e981aef3af9","BLUE-00056","2014-08-11T10:22:54-0700",,"FEMALE","RIGHT","2014-08-11T10:17:31-0700","Word Game",,"0","1030","CONGRUENT","1","920.2889800071716","RED","RED"
"53e8fbefb6145e981aef3af9","BLUE-00056","2014-08-11T10:22:54-0700",,"FEMALE","RIGHT","2014-08-11T10:17:31-0700","Word Game",,"0","1010","CONGRUENT","1","954.596996307373","YELLOW","YELLOW"
"53e8fbefb6145e981aef3af9","BLUE-00056","2014-08-11T10:22:54-0700",,"FEMALE","RIGHT","2014-08-11T10:17:31-0700","Word Game",,"0","1030","NEUTRAL","1","920.8630323410034","RED","RED"
"53e8fbefb6145e981aef3af9","BLUE-00056","2014-08-11T10:22:54-0700",,"FEMALE","RIGHT","2014-08-11T10:17:31-0700","Word Game",,"1","970","CONGRUENT","0","N/A","GREEN","GREEN"
"53e8fbefb6145e981aef3af9","BLUE-00056","2014-08-11T10:22:54-0700",,"FEMALE","RIGHT","2014-08-11T10:17:31-0700","Word Game",,"0","1010","CONGRUENT","1","805.0240278244019","WHITE","WHITE"
"53e8fbefb6145e981aef3af9","BLUE-00056","2014-08-11T10:22:54-0700",,"FEMALE","RIGHT","2014-08-11T10:17:31-0700","Word Game",,"0","1000","CONGRUENT","1","822.0330476760864","WHITE","WHITE"
"53e8fbefb6145e981aef3af9","BLUE-00056","2014-08-11T10:22:54-0700",,"FEMALE","RIGHT","2014-08-11T10:17:31-0700","Word Game",,"1","1050","INCONGRUENT","0","N/A","GREEN","GREEN"
"53e8fbefb6145e981aef3af9","BLUE-00056","2014-08-11T10:22:54-0700",,"FEMALE","RIGHT","2014-08-11T10:17:31-0700","Word Game",,"1","1090","INCONGRUENT","0","N/A","N/A","YELLOW"
"53e8fbefb6145e981aef3af9","BLUE-00056","2014-08-11T10:22:54-0700",,"FEMALE","RIGHT","2014-08-11T10:17:31-0700","Word Game",,"0","1170","INCONGRUENT","1","895.7659602165222","GREEN","GREEN"
"53e8fbefb6145e981aef3af9","BLUE-00056","2014-08-11T10:22:54-0700",,"FEMALE","RIGHT","2014-08-11T10:17:31-0700","Word Game",,"0","990","CONGRUENT","1","771.414041519165","GREEN","GREEN"
"53e8fbefb6145e981aef3af9","BLUE-00056","2014-08-11T10:22:54-0700",,"FEMALE","RIGHT","2014-08-11T10:17:31-0700","Word Game",,"0","950","NEUTRAL","1","904.8029780387878","RED","RED"
"53e8fbefb6145e981aef3af9","BLUE-00056","2014-08-11T10:22:54-0700",,"FEMALE","RIGHT","2014-08-11T10:17:31-0700","Word Game",,"0","1160","INCONGRUENT","1","836.0230326652527","GREEN","GREEN"
"53e8fbefb6145e981aef3af9","BLUE-00056","2014-08-11T10:22:54-0700",,"FEMALE","RIGHT","2014-08-11T10:17:31-0700","Word Game",,"0","970","CONGRUENT","1","870.2850341796875","GREEN","GREEN"
"53e8fbefb6145e981aef3af9","BLUE-00056","2014-08-11T10:22:54-0700",,"FEMALE","RIGHT","2014-08-11T10:17:31-0700","Word Game",,"1","1150","INCONGRUENT","0","N/A","N/A","GREEN"
"53e8fbefb6145e981aef3af9","BLUE-00056","2014-08-11T10:22:54-0700",,"FEMALE","RIGHT","2014-08-11T10:17:31-0700","Word Game",,"1","930","CONGRUENT","0","N/A","N/A","GREEN"
"53e8fbefb6145e981aef3af9","BLUE-00056","2014-08-11T10:22:54-0700",,"FEMALE","RIGHT","2014-08-11T10:17:31-0700","Word Game",,"1","790","NEUTRAL","0","N/A","YELLOW","YELLOW"
"53e8fbefb6145e981aef3af9","BLUE-00056","2014-08-11T10:22:54-0700",,"FEMALE","RIGHT","2014-08-11T10:17:31-0700","Word Game",,"0","970","CONGRUENT","1","837.8180265426636","YELLOW","YELLOW"
"53e8fbefb6145e981aef3af9","BLUE-00056","2014-08-11T10:22:54-0700",,"FEMALE","RIGHT","2014-08-11T10:17:31-0700","Word Game",,"0","960","CONGRUENT","1","803.7199974060059","WHITE","WHITE"
"53e8fbefb6145e981aef3af9","BLUE-00056","2014-08-11T10:22:54-0700",,"FEMALE","RIGHT","2014-08-11T10:17:31-0700","Word Game",,"1","830","NEUTRAL","0","N/A","YELLOW","YELLOW"
"53e8fbefb6145e981aef3af9","BLUE-00056","2014-08-11T10:22:54-0700",,"FEMALE","RIGHT","2014-08-11T10:17:31-0700","Word Game",,"1","1190","INCONGRUENT","0","N/A","N/A","YELLOW"
"53eaecf7b6145ef617ef3afa","GREEN-00032","2014-08-12T21:43:34-0700",,"FEMALE","LEFT","2014-08-12T21:38:28-0700","Word Game",,"0","800","INCONGRUENT","1","684.3199729919434","YELLOW","YELLOW"
"53eaecf7b6145ef617ef3afa","GREEN-00032","2014-08-12T21:43:34-0700",,"FEMALE","LEFT","2014-08-12T21:38:28-0700","Word Game",,"0","800","CONGRUENT","1","644.9199914932251","WHITE","WHITE"
"53eaecf7b6145ef617ef3afa","GREEN-00032","2014-08-12T21:43:34-0700",,"FEMALE","LEFT","2014-08-12T21:38:28-0700","Word Game",,"0","790","INCONGRUENT","1","668.6280369758606","YELLOW","YELLOW"
"53eaecf7b6145ef617ef3afa","GREEN-00032","2014-08-12T21:43:34-0700",,"FEMALE","LEFT","2014-08-12T21:38:28-0700","Word Game",,"0","780","INCONGRUENT","1","591.9610261917114","YELLOW","YELLOW"
"53eaecf7b6145ef617ef3afa","GREEN-00032","2014-08-12T21:43:34-0700",,"FEMALE","LEFT","2014-08-12T21:38:28-0700","Word Game",,"0","800","NEUTRAL","1","647.415041923523","RED","RED"
"53eaecf7b6145ef617ef3afa","GREEN-00032","2014-08-12T21:43:34-0700",,"FEMALE","LEFT","2014-08-12T21:38:28-0700","Word Game",,"0","790","CONGRUENT","1","537.6750230789185","GREEN","GREEN"
"53eaecf7b6145ef617ef3afa","GREEN-00032","2014-08-12T21:43:34-0700",,"FEMALE","LEFT","2014-08-12T21:38:28-0700","Word Game",,"0","780","CONGRUENT","1","762.8099918365479","YELLOW","YELLOW"
"53eaecf7b6145ef617ef3afa","GREEN-00032","2014-08-12T21:43:34-0700",,"FEMALE","LEFT","2014-08-12T21:38:28-0700","Word Game",,"0","760","INCONGRUENT","1","698.1090307235718","GREEN","GREEN"
"53eaecf7b6145ef617ef3afa","GREEN-00032","2014-08-12T21:43:34-0700",,"FEMALE","LEFT","2014-08-12T21:38:28-0700","Word Game",,"0","760","CONGRUENT","1","725.6609797477722","WHITE","WHITE"
"53eaecf7b6145ef617ef3afa","GREEN-00032","2014-08-12T21:43:34-0700",,"FEMALE","LEFT","2014-08-12T21:38:28-0700","Word Game",,"0","720","INCONGRUENT","1","574.5800137519836","YELLOW","YELLOW"
"53eaecf7b6145ef617ef3afa","GREEN-00032","2014-08-12T21:43:34-0700",,"FEMALE","LEFT","2014-08-12T21:38:28-0700","Word Game",,"0","790","NEUTRAL","1","605.908989906311","YELLOW","YELLOW"
"53eaecf7b6145ef617ef3afa","GREEN-00032","2014-08-12T21:43:34-0700",,"FEMALE","LEFT","2014-08-12T21:38:28-0700","Word Game",,"0","780","NEUTRAL","1","606.473982334137","WHITE","WHITE"
"53eaecf7b6145ef617ef3afa","GREEN-00032","2014-08-12T21:43:34-0700",,"FEMALE","LEFT","2014-08-12T21:38:28-0700","Word Game",,"1","640","INCONGRUENT","0","N/A","YELLOW","YELLOW"
"53eaecf7b6145ef617ef3afa","GREEN-00032","2014-08-12T21:43:34-0700",,"FEMALE","LEFT","2014-08-12T21:38:28-0700","Word Game",,"0","720","CONGRUENT","1","558.8990449905396","GREEN","GREEN"
"53eaecf7b6145ef617ef3afa","GREEN-00032","2014-08-12T21:43:34-0700",,"FEMALE","LEFT","2014-08-12T21:38:28-0700","Word Game",,"0","680","INCONGRUENT","1","623.7999796867371","WHITE","WHITE"
"53eaecf7b6145ef617ef3afa","GREEN-00032","2014-08-12T21:43:34-0700",,"FEMALE","LEFT","2014-08-12T21:38:28-0700","Word Game",,"0","760","NEUTRAL","1","655.0790071487427","RED","RED"
"53eaecf7b6145ef617ef3afa","GREEN-00032","2014-08-12T21:43:34-0700",,"FEMALE","LEFT","2014-08-12T21:38:28-0700","Word Game",,"1","720","NEUTRAL","0","N/A","WHITE","WHITE"
"53eaecf7b6145ef617ef3afa","GREEN-00032","2014-08-12T21:43:34-0700",,"FEMALE","LEFT","2014-08-12T21:38:28-0700","Word Game",,"1","640","CONGRUENT","0","N/A","WHITE","WHITE"
"53eaecf7b6145ef617ef3afa","GREEN-00032","2014-08-12T21:43:34-0700",,"FEMALE","LEFT","2014-08-12T21:38:28-0700","Word Game",,"1","670","INCONGRUENT","0","N/A","N/A","GREEN"
"53eaecf7b6145ef617ef3afa","GREEN-00032","2014-08-12T21:43:34-0700",,"FEMALE","LEFT","2014-08-12T21:38:28-0700","Word Game",,"0","680","CONGRUENT","1","626.230001449585","GREEN","GREEN"
"53eaecf7b6145ef617ef3afa","GREEN-00032","2014-08-12T21:43:34-0700",,"FEMALE","LEFT","2014-08-12T21:38:28-0700","Word Game",,"1","670","CONGRUENT","0","N/A","RED","RED"
"53eaecf7b6145ef617ef3afa","GREEN-00032","2014-08-12T21:43:34-0700",,"FEMALE","LEFT","2014-08-12T21:38:28-0700","Word Game",,"0","760","NEUTRAL","1","633.5729956626892","YELLOW","YELLOW"
"53eaecf7b6145ef617ef3afa","GREEN-00032","2014-08-12T21:43:34-0700",,"FEMALE","LEFT","2014-08-12T21:38:28-0700","Word Game",,"0","710","INCONGRUENT","1","657.5350165367126","YELLOW","YELLOW"
"53eaecf7b6145ef617ef3afa","GREEN-00032","2014-08-12T21:43:34-0700",,"FEMALE","LEFT","2014-08-12T21:38:28-0700","Word Game",,"1","750","NEUTRAL","0","N/A","WHITE","WHITE"
"53eaecf7b6145ef617ef3afa","GREEN-00032","2014-08-12T21:43:34-0700",,"FEMALE","LEFT","2014-08-12T21:38:28-0700","Word Game",,"1","700","INCONGRUENT","0","N/A","WHITE","WHITE"
"53eaecf7b6145ef617ef3afa","GREEN-00032","2014-08-12T21:43:34-0700",,"FEMALE","LEFT","2014-08-12T21:38:28-0700","Word Game",,"1","790","NEUTRAL","0","N/A","WHITE","WHITE"
"53eaecf7b6145ef617ef3afa","GREEN-00032","2014-08-12T21:43:34-0700",,"FEMALE","LEFT","2014-08-12T21:38:28-0700","Word Game",,"0","740","INCONGRUENT","1","650.3399610519409","YELLOW","YELLOW"
"53eaecf7b6145ef617ef3afa","GREEN-00032","2014-08-12T21:43:34-0700",,"FEMALE","LEFT","2014-08-12T21:38:28-0700","Word Game",,"1","710","CONGRUENT","0","N/A","YELLOW","YELLOW"
"53eaecf7b6145ef617ef3afa","GREEN-00032","2014-08-12T21:43:34-0700",,"FEMALE","LEFT","2014-08-12T21:38:28-0700","Word Game",,"0","830","NEUTRAL","1","737.8190159797668","WHITE","WHITE"
"53eaecf7b6145ef617ef3afa","GREEN-00032","2014-08-12T21:43:34-0700",,"FEMALE","LEFT","2014-08-12T21:38:28-0700","Word Game",,"0","750","CONGRUENT","1","695.2959895133972","RED","RED"
"53eaecf7b6145ef617ef3afa","GREEN-00032","2014-08-12T21:43:34-0700",,"FEMALE","LEFT","2014-08-12T21:38:28-0700","Word Game",,"1","730","INCONGRUENT","0","N/A","N/A","YELLOW"
"53eaecf7b6145ef617ef3afa","GREEN-00032","2014-08-12T21:43:34-0700",,"FEMALE","LEFT","2014-08-12T21:38:28-0700","Word Game",,"0","820","NEUTRAL","1","645.6300020217896","YELLOW","YELLOW"
"53eaecf7b6145ef617ef3afa","GREEN-00032","2014-08-12T21:43:34-0700",,"FEMALE","LEFT","2014-08-12T21:38:28-0700","Word Game",,"1","770","INCONGRUENT","0","N/A","YELLOW","YELLOW"
"53eaecf7b6145ef617ef3afa","GREEN-00032","2014-08-12T21:43:34-0700",,"FEMALE","LEFT","2014-08-12T21:38:28-0700","Word Game",,"0","810","INCONGRUENT","1","721.5650081634521","WHITE","WHITE"
"53eaecf7b6145ef617ef3afa","GREEN-00032","2014-08-12T21:43:34-0700",,"FEMALE","LEFT","2014-08-12T21:38:28-0700","Word Game",,"0","810","NEUTRAL","1","718.6350226402283","GREEN","GREEN"
"53eaecf7b6145ef617ef3afa","GREEN-00032","2014-08-12T21:43:34-0700",,"FEMALE","LEFT","2014-08-12T21:38:28-0700","Word Game",,"0","790","NEUTRAL","1","717.1590328216553","GREEN","GREEN"
"53eaecf7b6145ef617ef3afa","GREEN-00032","2014-08-12T21:43:34-0700",,"FEMALE","LEFT","2014-08-12T21:38:28-0700","Word Game",,"1","750","NEUTRAL","0","N/A","WHITE","WHITE"
"53eaecf7b6145ef617ef3afa","GREEN-00032","2014-08-12T21:43:34-0700",,"FEMALE","LEFT","2014-08-12T21:38:28-0700","Word Game",,"0","740","CONGRUENT","1","579.425036907196","RED","RED"
"53eaecf7b6145ef617ef3afa","GREEN-00032","2014-08-12T21:43:34-0700",,"FEMALE","LEFT","2014-08-12T21:38:28-0700","Word Game",,"0","790","NEUTRAL","1","615.5889630317688","RED","RED"
"53eaecf7b6145ef617ef3afa","GREEN-00032","2014-08-12T21:43:34-0700",,"FEMALE","LEFT","2014-08-12T21:38:28-0700","Word Game",,"0","800","INCONGRUENT","1","666.8010354042053","YELLOW","YELLOW"
"53eaecf7b6145ef617ef3afa","GREEN-00032","2014-08-12T21:43:34-0700",,"FEMALE","LEFT","2014-08-12T21:38:28-0700","Word Game",,"0","790","INCONGRUENT","1","694.350004196167","GREEN","GREEN"
"53eaecf7b6145ef617ef3afa","GREEN-00032","2014-08-12T21:43:34-0700",,"FEMALE","LEFT","2014-08-12T21:38:28-0700","Word Game",,"0","730","CONGRUENT","1","639.3499970436096","YELLOW","YELLOW"
"53eaecf7b6145ef617ef3afa","GREEN-00032","2014-08-12T21:43:34-0700",,"FEMALE","LEFT","2014-08-12T21:38:28-0700","Word Game",,"0","770","INCONGRUENT","1","629.7889947891235","GREEN","GREEN"
"53eaecf7b6145ef617ef3afa","GREEN-00032","2014-08-12T21:43:34-0700",,"FEMALE","LEFT","2014-08-12T21:38:28-0700","Word Game",,"0","730","INCONGRUENT","1","607.0729494094849","WHITE","WHITE"
"53eaecf7b6145ef617ef3afa","GREEN-00032","2014-08-12T21:43:34-0700",,"FEMALE","LEFT","2014-08-12T21:38:28-0700","Word Game",,"0","710","CONGRUENT","1","505.50001859664917","RED","RED"
"53eaecf7b6145ef617ef3afa","GREEN-00032","2014-08-12T21:43:34-0700",,"FEMALE","LEFT","2014-08-12T21:38:28-0700","Word Game",,"0","780","NEUTRAL","1","537.7040505409241","GREEN","GREEN"
"53eaecf7b6145ef617ef3afa","GREEN-00032","2014-08-12T21:43:34-0700",,"FEMALE","LEFT","2014-08-12T21:38:28-0700","Word Game",,"0","770","NEUTRAL","1","655.348002910614","RED","RED"
"53eaecf7b6145ef617ef3afa","GREEN-00032","2014-08-12T21:43:34-0700",,"FEMALE","LEFT","2014-08-12T21:38:28-0700","Word Game",,"1","650","INCONGRUENT","0","N/A","WHITE","WHITE"
"53eaecf7b6145ef617ef3afa","GREEN-00032","2014-08-12T21:43:34-0700",,"FEMALE","LEFT","2014-08-12T21:38:28-0700","Word Game",,"0","750","NEUTRAL","1","602.3550033569336","YELLOW","YELLOW"
"53eaecf7b6145ef617ef3afa","GREEN-00032","2014-08-12T21:43:34-0700",,"FEMALE","LEFT","2014-08-12T21:38:28-0700","Word Game",,"0","690","INCONGRUENT","1","591.3909673690796","WHITE","WHITE"
"53eaecf7b6145ef617ef3afa","GREEN-00032","2014-08-12T21:43:34-0700",,"FEMALE","LEFT","2014-08-12T21:38:28-0700","Word Game",,"0","710","NEUTRAL","1","629.1260123252869","YELLOW","YELLOW"
"53eaecf7b6145ef617ef3afa","GREEN-00032","2014-08-12T21:43:34-0700",,"FEMALE","LEFT","2014-08-12T21:38:28-0700","Word Game",,"0","670","CONGRUENT","0","605.3329706192017","WHITE","GREEN"
"53eaecf7b6145ef617ef3afa","GREEN-00032","2014-08-12T21:43:34-0700",,"FEMALE","LEFT","2014-08-12T21:38:28-0700","Word Game",,"1","710","CONGRUENT","0","N/A","YELLOW","YELLOW"
"53eaecf7b6145ef617ef3afa","GREEN-00032","2014-08-12T21:43:34-0700",,"FEMALE","LEFT","2014-08-12T21:38:28-0700","Word Game",,"0","630","NEUTRAL","1","578.1040191650391","RED","RED"
"53eaecf7b6145ef617ef3afa","GREEN-00032","2014-08-12T21:43:34-0700",,"FEMALE","LEFT","2014-08-12T21:38:28-0700","Word Game",,"1","680","INCONGRUENT","0","N/A","YELLOW","YELLOW"
"53eaecf7b6145ef617ef3afa","GREEN-00032","2014-08-12T21:43:34-0700",,"FEMALE","LEFT","2014-08-12T21:38:28-0700","Word Game",,"0","750","CONGRUENT","1","662.431001663208","WHITE","WHITE"
"53eaecf7b6145ef617ef3afa","GREEN-00032","2014-08-12T21:43:34-0700",,"FEMALE","LEFT","2014-08-12T21:38:28-0700","Word Game",,"1","720","INCONGRUENT","0","N/A","N/A","YELLOW"
"53eaecf7b6145ef617ef3afa","GREEN-00032","2014-08-12T21:43:34-0700",,"FEMALE","LEFT","2014-08-12T21:38:28-0700","Word Game",,"0","760","INCONGRUENT","1","702.5969624519348","GREEN","GREEN"
"53eaecf7b6145ef617ef3afa","GREEN-00032","2014-08-12T21:43:34-0700",,"FEMALE","LEFT","2014-08-12T21:38:28-0700","Word Game",,"0","740","CONGRUENT","1","703.4359574317932","GREEN","GREEN"
"53eaecf7b6145ef617ef3afa","GREEN-00032","2014-08-12T21:43:34-0700",,"FEMALE","LEFT","2014-08-12T21:38:28-0700","Word Game",,"0","730","CONGRUENT","1","707.0469856262207","WHITE","WHITE"
"53eaecf7b6145ef617ef3afa","GREEN-00032","2014-08-12T21:43:34-0700",,"FEMALE","LEFT","2014-08-12T21:38:28-0700","Word Game",,"0","710","CONGRUENT","1","687.0329976081848","RED","RED"
"53eaecf7b6145ef617ef3afa","GREEN-00032","2014-08-12T21:43:34-0700",,"FEMALE","LEFT","2014-08-12T21:38:28-0700","Word Game",,"1","470","NEUTRAL","0","N/A","RED","RED"
"53eaecf7b6145ef617ef3afa","GREEN-00032","2014-08-12T21:43:34-0700",,"FEMALE","LEFT","2014-08-12T21:38:28-0700","Word Game",,"1","670","CONGRUENT","0","N/A","RED","RED"
"53eaecf7b6145ef617ef3afa","GREEN-00032","2014-08-12T21:43:34-0700",,"FEMALE","LEFT","2014-08-12T21:38:28-0700","Word Game",,"1","510","NEUTRAL","0","N/A","N/A","YELLOW"
"53eaecf7b6145ef617ef3afa","GREEN-00032","2014-08-12T21:43:34-0700",,"FEMALE","LEFT","2014-08-12T21:38:28-0700","Word Game",,"1","710","CONGRUENT","0","N/A","GREEN","GREEN"
"53eaecf7b6145ef617ef3afa","GREEN-00032","2014-08-12T21:43:34-0700",,"FEMALE","LEFT","2014-08-12T21:38:28-0700","Word Game",,"1","750","CONGRUENT","0","N/A","WHITE","WHITE"
"53eaecf7b6145ef617ef3afa","GREEN-00032","2014-08-12T21:43:34-0700",,"FEMALE","LEFT","2014-08-12T21:38:28-0700","Word Game",,"0","830","CONGRUENT","1","722.137987613678","YELLOW","YELLOW"
"53eaecf7b6145ef617ef3afa","GREEN-00032","2014-08-12T21:43:34-0700",,"FEMALE","LEFT","2014-08-12T21:38:28-0700","Word Game",,"0","750","INCONGRUENT","1","705.6490182876587","GREEN","GREEN"
"53eaecf7b6145ef617ef3afa","GREEN-00032","2014-08-12T21:43:34-0700",,"FEMALE","LEFT","2014-08-12T21:38:28-0700","Word Game",,"0","550","NEUTRAL","0","513.9369964599609","YELLOW","GREEN"
